onset	duration	channel	onset_sample_idx	event_type	target_sequence	keypress_id	finger_label	trial_number
13.9383333333333	0	UPPT001	8364	StartPractice	41324	n/a	n/a	1
15.8066666666667	0	n/a	9485	KeyDown	41324	4	Index	1
15.8983333333333	0	n/a	9540	KeyDown	41324	1	Little	1
16.5066666666667	0	n/a	9905	KeyDown	41324	3	Middle	1
16.6433333333333	0	n/a	9987	KeyDown	41324	2	Ring	1
16.7916666666667	0	n/a	10076	KeyDown	41324	4	Index	1
17.0233333333333	0	n/a	10215	KeyDown	41324	4	Index	1
17.1650000000000	0	n/a	10300	KeyDown	41324	1	Little	1
17.4166666666667	0	n/a	10451	KeyDown	41324	3	Middle	1
17.5600000000000	0	n/a	10537	KeyDown	41324	2	Ring	1
17.7650000000000	0	n/a	10660	KeyDown	41324	4	Index	1
18.0783333333333	0	n/a	10848	KeyDown	41324	4	Index	1
18.2900000000000	0	n/a	10975	KeyDown	41324	1	Little	1
18.5900000000000	0	n/a	11155	KeyDown	41324	3	Middle	1
18.7400000000000	0	n/a	11245	KeyDown	41324	2	Ring	1
18.8816666666667	0	n/a	11330	KeyDown	41324	4	Index	1
19.0816666666667	0	n/a	11450	KeyDown	41324	4	Index	1
19.2116666666667	0	n/a	11528	KeyDown	41324	1	Little	1
19.3800000000000	0	n/a	11629	KeyDown	41324	3	Middle	1
19.5266666666667	0	n/a	11717	KeyDown	41324	2	Ring	1
19.6516666666667	0	n/a	11792	KeyDown	41324	4	Index	1
19.8733333333333	0	n/a	11925	KeyDown	41324	4	Index	1
20.0400000000000	0	n/a	12025	KeyDown	41324	1	Little	1
20.2300000000000	0	n/a	12139	KeyDown	41324	3	Middle	1
20.3916666666667	0	n/a	12236	KeyDown	41324	2	Ring	1
20.5150000000000	0	n/a	12310	KeyDown	41324	4	Index	1
20.7150000000000	0	n/a	12430	KeyDown	41324	4	Index	1
20.8333333333333	0	n/a	12501	KeyDown	41324	1	Little	1
21.0166666666667	0	n/a	12611	KeyDown	41324	3	Middle	1
21.1400000000000	0	n/a	12685	KeyDown	41324	2	Ring	1
21.2733333333333	0	n/a	12765	KeyDown	41324	4	Index	1
21.4366666666667	0	n/a	12863	KeyDown	41324	4	Index	1
21.5416666666667	0	n/a	12926	KeyDown	41324	1	Little	1
21.6900000000000	0	n/a	13015	KeyDown	41324	3	Middle	1
21.8366666666667	0	n/a	13103	KeyDown	41324	2	Ring	1
21.9550000000000	0	n/a	13174	KeyDown	41324	4	Index	1
22.1316666666667	0	n/a	13280	KeyDown	41324	4	Index	1
22.2266666666667	0	n/a	13337	KeyDown	41324	1	Little	1
22.3683333333333	0	n/a	13422	KeyDown	41324	3	Middle	1
22.4866666666667	0	n/a	13493	KeyDown	41324	2	Ring	1
22.6083333333333	0	n/a	13566	KeyDown	41324	4	Index	1
22.7750000000000	0	n/a	13666	KeyDown	41324	4	Index	1
22.8683333333333	0	n/a	13722	KeyDown	41324	1	Little	1
23.0016666666667	0	n/a	13802	KeyDown	41324	3	Middle	1
23.1600000000000	0	n/a	13897	KeyDown	41324	2	Ring	1
23.2766666666667	0	n/a	13967	KeyDown	41324	4	Index	1
23.4366666666667	0	n/a	14063	KeyDown	41324	4	Index	1
23.5450000000000	0	n/a	14128	KeyDown	41324	1	Little	1
23.6766666666667	0	n/a	14207	KeyDown	41324	3	Middle	1
23.7983333333333	0	n/a	14280	KeyDown	41324	2	Ring	1
23.9150000000000	0	n/a	14350	KeyDown	41324	4	Index	1
23.9850000000000	0	n/a	14392	StopPractice	41324	n/a	n/a	1
23.9866666666667	0	n/a	14393	StartRest	XXXXX	n/a	n/a	1
33.9983333333333	0	n/a	20400	StopRest	XXXXX	n/a	n/a	1
34.0000000000000	0	UPPT001	20401	StartPractice	41324	n/a	n/a	2
34.5100000000000	0	n/a	20707	KeyDown	41324	4	Index	2
34.6233333333333	0	n/a	20775	KeyDown	41324	1	Little	2
34.9716666666667	0	n/a	20984	KeyDown	41324	3	Middle	2
35.0983333333333	0	n/a	21060	KeyDown	41324	2	Ring	2
35.2183333333333	0	n/a	21132	KeyDown	41324	4	Index	2
35.3883333333333	0	n/a	21234	KeyDown	41324	4	Index	2
35.4833333333333	0	n/a	21291	KeyDown	41324	1	Little	2
35.6150000000000	0	n/a	21370	KeyDown	41324	3	Middle	2
35.7683333333333	0	n/a	21462	KeyDown	41324	2	Ring	2
35.8850000000000	0	n/a	21532	KeyDown	41324	4	Index	2
36.0633333333333	0	n/a	21639	KeyDown	41324	4	Index	2
36.1766666666667	0	n/a	21707	KeyDown	41324	1	Little	2
36.3216666666667	0	n/a	21794	KeyDown	41324	3	Middle	2
36.4550000000000	0	n/a	21874	KeyDown	41324	2	Ring	2
36.5650000000000	0	n/a	21940	KeyDown	41324	4	Index	2
36.7233333333333	0	n/a	22035	KeyDown	41324	4	Index	2
36.8333333333333	0	n/a	22101	KeyDown	41324	1	Little	2
36.9766666666667	0	n/a	22187	KeyDown	41324	3	Middle	2
37.0966666666667	0	n/a	22259	KeyDown	41324	2	Ring	2
37.2083333333333	0	n/a	22326	KeyDown	41324	4	Index	2
37.3733333333333	0	n/a	22425	KeyDown	41324	4	Index	2
37.4833333333333	0	n/a	22491	KeyDown	41324	1	Little	2
37.6300000000000	0	n/a	22579	KeyDown	41324	3	Middle	2
37.7583333333333	0	n/a	22656	KeyDown	41324	2	Ring	2
37.8766666666667	0	n/a	22727	KeyDown	41324	4	Index	2
38.0383333333333	0	n/a	22824	KeyDown	41324	4	Index	2
38.1433333333333	0	n/a	22887	KeyDown	41324	1	Little	2
38.2933333333333	0	n/a	22977	KeyDown	41324	3	Middle	2
38.4283333333333	0	n/a	23058	KeyDown	41324	2	Ring	2
38.5666666666667	0	n/a	23141	KeyDown	41324	4	Index	2
38.7383333333333	0	n/a	23244	KeyDown	41324	4	Index	2
38.8683333333333	0	n/a	23322	KeyDown	41324	1	Little	2
39.0433333333333	0	n/a	23427	KeyDown	41324	3	Middle	2
39.1566666666667	0	n/a	23495	KeyDown	41324	2	Ring	2
39.2833333333333	0	n/a	23571	KeyDown	41324	4	Index	2
39.4733333333333	0	n/a	23685	KeyDown	41324	4	Index	2
39.5800000000000	0	n/a	23749	KeyDown	41324	1	Little	2
39.7350000000000	0	n/a	23842	KeyDown	41324	3	Middle	2
39.8616666666667	0	n/a	23918	KeyDown	41324	2	Ring	2
39.9816666666667	0	n/a	23990	KeyDown	41324	4	Index	2
40.1533333333333	0	n/a	24093	KeyDown	41324	4	Index	2
40.2583333333333	0	n/a	24156	KeyDown	41324	1	Little	2
40.3850000000000	0	n/a	24232	KeyDown	41324	3	Middle	2
40.4866666666667	0	n/a	24293	KeyDown	41324	2	Ring	2
40.6316666666667	0	n/a	24380	KeyDown	41324	4	Index	2
40.7833333333333	0	n/a	24471	KeyDown	41324	4	Index	2
40.8966666666667	0	n/a	24539	KeyDown	41324	1	Little	2
41.0300000000000	0	n/a	24619	KeyDown	41324	3	Middle	2
41.1383333333333	0	n/a	24684	KeyDown	41324	2	Ring	2
41.2750000000000	0	n/a	24766	KeyDown	41324	4	Index	2
41.4466666666667	0	n/a	24869	KeyDown	41324	4	Index	2
41.5466666666667	0	n/a	24929	KeyDown	41324	1	Little	2
41.6816666666667	0	n/a	25010	KeyDown	41324	3	Middle	2
41.7850000000000	0	n/a	25072	KeyDown	41324	2	Ring	2
41.9066666666667	0	n/a	25145	KeyDown	41324	4	Index	2
42.0783333333333	0	n/a	25248	KeyDown	41324	4	Index	2
42.1816666666667	0	n/a	25310	KeyDown	41324	1	Little	2
42.3133333333333	0	n/a	25389	KeyDown	41324	3	Middle	2
42.4183333333333	0	n/a	25452	KeyDown	41324	2	Ring	2
42.5566666666667	0	n/a	25535	KeyDown	41324	4	Index	2
42.7250000000000	0	n/a	25636	KeyDown	41324	4	Index	2
42.8433333333333	0	n/a	25707	KeyDown	41324	1	Little	2
42.9833333333333	0	n/a	25791	KeyDown	41324	3	Middle	2
43.1083333333333	0	n/a	25866	KeyDown	41324	2	Ring	2
43.2383333333333	0	n/a	25944	KeyDown	41324	4	Index	2
43.3983333333333	0	n/a	26040	KeyDown	41324	4	Index	2
43.5266666666667	0	n/a	26117	KeyDown	41324	1	Little	2
43.6716666666667	0	n/a	26204	KeyDown	41324	3	Middle	2
43.7850000000000	0	n/a	26272	KeyDown	41324	2	Ring	2
43.9416666666667	0	n/a	26366	KeyDown	41324	4	Index	2
44.0466666666667	0	n/a	26429	StopPractice	41324	n/a	n/a	2
44.0483333333333	0	n/a	26430	StartRest	XXXXX	n/a	n/a	2
54.0916666666667	0	n/a	32456	StopRest	XXXXX	n/a	n/a	2
54.0933333333333	0	UPPT001	32457	StartPractice	41324	n/a	n/a	3
54.5150000000000	0	n/a	32710	KeyDown	41324	4	Index	3
54.6516666666667	0	n/a	32792	KeyDown	41324	1	Little	3
54.9400000000000	0	n/a	32965	KeyDown	41324	3	Middle	3
55.0500000000000	0	n/a	33031	KeyDown	41324	2	Ring	3
55.1716666666667	0	n/a	33104	KeyDown	41324	4	Index	3
55.3466666666667	0	n/a	33209	KeyDown	41324	4	Index	3
55.4716666666667	0	n/a	33284	KeyDown	41324	1	Little	3
55.6366666666667	0	n/a	33383	KeyDown	41324	3	Middle	3
55.7683333333333	0	n/a	33462	KeyDown	41324	2	Ring	3
55.8933333333333	0	n/a	33537	KeyDown	41324	4	Index	3
56.0450000000000	0	n/a	33628	KeyDown	41324	4	Index	3
56.1500000000000	0	n/a	33691	KeyDown	41324	1	Little	3
56.2883333333333	0	n/a	33774	KeyDown	41324	3	Middle	3
56.3866666666667	0	n/a	33833	KeyDown	41324	2	Ring	3
56.5016666666667	0	n/a	33902	KeyDown	41324	4	Index	3
56.6750000000000	0	n/a	34006	KeyDown	41324	4	Index	3
56.7883333333333	0	n/a	34074	KeyDown	41324	1	Little	3
56.9316666666667	0	n/a	34160	KeyDown	41324	3	Middle	3
57.0133333333333	0	n/a	34209	KeyDown	41324	2	Ring	3
57.1400000000000	0	n/a	34285	KeyDown	41324	4	Index	3
57.3216666666667	0	n/a	34394	KeyDown	41324	4	Index	3
57.4300000000000	0	n/a	34459	KeyDown	41324	1	Little	3
57.5616666666667	0	n/a	34538	KeyDown	41324	3	Middle	3
57.6683333333333	0	n/a	34602	KeyDown	41324	2	Ring	3
57.8016666666667	0	n/a	34682	KeyDown	41324	4	Index	3
57.9516666666667	0	n/a	34772	KeyDown	41324	4	Index	3
58.0550000000000	0	n/a	34834	KeyDown	41324	1	Little	3
58.1850000000000	0	n/a	34912	KeyDown	41324	3	Middle	3
58.2966666666667	0	n/a	34979	KeyDown	41324	2	Ring	3
58.4216666666667	0	n/a	35054	KeyDown	41324	4	Index	3
58.5816666666667	0	n/a	35150	KeyDown	41324	4	Index	3
58.6816666666667	0	n/a	35210	KeyDown	41324	1	Little	3
58.8300000000000	0	n/a	35299	KeyDown	41324	3	Middle	3
58.9400000000000	0	n/a	35365	KeyDown	41324	2	Ring	3
59.0683333333333	0	n/a	35442	KeyDown	41324	4	Index	3
59.2416666666667	0	n/a	35546	KeyDown	41324	4	Index	3
59.3750000000000	0	n/a	35626	KeyDown	41324	1	Little	3
59.4950000000000	0	n/a	35698	KeyDown	41324	3	Middle	3
59.6000000000000	0	n/a	35761	KeyDown	41324	2	Ring	3
59.7450000000000	0	n/a	35848	KeyDown	41324	4	Index	3
59.9016666666667	0	n/a	35942	KeyDown	41324	4	Index	3
60.0216666666667	0	n/a	36014	KeyDown	41324	1	Little	3
60.1716666666667	0	n/a	36104	KeyDown	41324	3	Middle	3
60.2950000000000	0	n/a	36178	KeyDown	41324	2	Ring	3
60.4150000000000	0	n/a	36250	KeyDown	41324	4	Index	3
60.5983333333333	0	n/a	36360	KeyDown	41324	4	Index	3
60.7850000000000	0	n/a	36472	KeyDown	41324	1	Little	3
60.8850000000000	0	n/a	36532	KeyDown	41324	3	Middle	3
60.9800000000000	0	n/a	36589	KeyDown	41324	2	Ring	3
61.1183333333333	0	n/a	36672	KeyDown	41324	4	Index	3
61.2850000000000	0	n/a	36772	KeyDown	41324	4	Index	3
61.4150000000000	0	n/a	36850	KeyDown	41324	1	Little	3
61.5433333333333	0	n/a	36927	KeyDown	41324	3	Middle	3
61.6616666666667	0	n/a	36998	KeyDown	41324	2	Ring	3
61.7900000000000	0	n/a	37075	KeyDown	41324	4	Index	3
61.9550000000000	0	n/a	37174	KeyDown	41324	4	Index	3
62.0800000000000	0	n/a	37249	KeyDown	41324	1	Little	3
62.2216666666667	0	n/a	37334	KeyDown	41324	3	Middle	3
62.3500000000000	0	n/a	37411	KeyDown	41324	2	Ring	3
62.4783333333333	0	n/a	37488	KeyDown	41324	4	Index	3
62.6416666666667	0	n/a	37586	KeyDown	41324	4	Index	3
62.7866666666667	0	n/a	37673	KeyDown	41324	1	Little	3
62.9066666666667	0	n/a	37745	KeyDown	41324	3	Middle	3
63.0400000000000	0	n/a	37825	KeyDown	41324	2	Ring	3
63.1916666666667	0	n/a	37916	KeyDown	41324	4	Index	3
63.3750000000000	0	n/a	38026	KeyDown	41324	4	Index	3
63.5100000000000	0	n/a	38107	KeyDown	41324	1	Little	3
63.6200000000000	0	n/a	38173	KeyDown	41324	3	Middle	3
63.7166666666667	0	n/a	38231	KeyDown	41324	2	Ring	3
63.8650000000000	0	n/a	38320	KeyDown	41324	4	Index	3
64.0316666666667	0	n/a	38420	KeyDown	41324	4	Index	3
64.1400000000000	0	n/a	38485	StopPractice	41324	n/a	n/a	3
64.1416666666667	0	n/a	38486	StartRest	XXXXX	n/a	n/a	3
74.1816666666667	0	n/a	44510	StopRest	XXXXX	n/a	n/a	3
74.1833333333333	0	UPPT001	44511	StartPractice	41324	n/a	n/a	4
74.6116666666667	0	n/a	44768	KeyDown	41324	4	Index	4
74.7350000000000	0	n/a	44842	KeyDown	41324	1	Little	4
74.9450000000000	0	n/a	44968	KeyDown	41324	3	Middle	4
75.0750000000000	0	n/a	45046	KeyDown	41324	2	Ring	4
75.2150000000000	0	n/a	45130	KeyDown	41324	4	Index	4
75.3666666666667	0	n/a	45221	KeyDown	41324	4	Index	4
75.4700000000000	0	n/a	45283	KeyDown	41324	1	Little	4
75.5850000000000	0	n/a	45352	KeyDown	41324	3	Middle	4
75.7150000000000	0	n/a	45430	KeyDown	41324	2	Ring	4
75.8350000000000	0	n/a	45502	KeyDown	41324	4	Index	4
76.0016666666667	0	n/a	45602	KeyDown	41324	4	Index	4
76.1100000000000	0	n/a	45667	KeyDown	41324	1	Little	4
76.2216666666667	0	n/a	45734	KeyDown	41324	3	Middle	4
76.3300000000000	0	n/a	45799	KeyDown	41324	2	Ring	4
76.4483333333333	0	n/a	45870	KeyDown	41324	4	Index	4
76.5916666666667	0	n/a	45956	KeyDown	41324	4	Index	4
76.6933333333333	0	n/a	46017	KeyDown	41324	1	Little	4
76.7966666666667	0	n/a	46079	KeyDown	41324	3	Middle	4
76.9016666666667	0	n/a	46142	KeyDown	41324	2	Ring	4
77.0416666666667	0	n/a	46226	KeyDown	41324	4	Index	4
77.1916666666667	0	n/a	46316	KeyDown	41324	4	Index	4
77.3016666666667	0	n/a	46382	KeyDown	41324	1	Little	4
77.4366666666667	0	n/a	46463	KeyDown	41324	3	Middle	4
77.5483333333333	0	n/a	46530	KeyDown	41324	2	Ring	4
77.6750000000000	0	n/a	46606	KeyDown	41324	4	Index	4
77.8333333333333	0	n/a	46701	KeyDown	41324	4	Index	4
77.9616666666667	0	n/a	46778	KeyDown	41324	1	Little	4
78.0466666666667	0	n/a	46829	KeyDown	41324	3	Middle	4
78.1666666666667	0	n/a	46901	KeyDown	41324	2	Ring	4
78.5750000000000	0	n/a	47146	KeyDown	41324	4	Index	4
78.7150000000000	0	n/a	47230	KeyDown	41324	4	Index	4
78.9433333333333	0	n/a	47367	KeyDown	41324	1	Little	4
79.2366666666667	0	n/a	47543	KeyDown	41324	3	Middle	4
79.3483333333333	0	n/a	47610	KeyDown	41324	2	Ring	4
79.4700000000000	0	n/a	47683	KeyDown	41324	4	Index	4
79.6566666666667	0	n/a	47795	KeyDown	41324	4	Index	4
79.7716666666667	0	n/a	47864	KeyDown	41324	1	Little	4
79.8900000000000	0	n/a	47935	KeyDown	41324	3	Middle	4
80.0100000000000	0	n/a	48007	KeyDown	41324	2	Ring	4
80.1450000000000	0	n/a	48088	KeyDown	41324	4	Index	4
80.2850000000000	0	n/a	48172	KeyDown	41324	4	Index	4
80.3916666666667	0	n/a	48236	KeyDown	41324	1	Little	4
80.5000000000000	0	n/a	48301	KeyDown	41324	3	Middle	4
80.6016666666667	0	n/a	48362	KeyDown	41324	2	Ring	4
80.7516666666667	0	n/a	48452	KeyDown	41324	4	Index	4
80.8900000000000	0	n/a	48535	KeyDown	41324	4	Index	4
80.9916666666667	0	n/a	48596	KeyDown	41324	1	Little	4
81.1050000000000	0	n/a	48664	KeyDown	41324	3	Middle	4
81.2066666666667	0	n/a	48725	KeyDown	41324	2	Ring	4
81.3600000000000	0	n/a	48817	KeyDown	41324	4	Index	4
81.5266666666667	0	n/a	48917	KeyDown	41324	4	Index	4
81.6300000000000	0	n/a	48979	KeyDown	41324	1	Little	4
81.7533333333333	0	n/a	49053	KeyDown	41324	3	Middle	4
81.8516666666667	0	n/a	49112	KeyDown	41324	2	Ring	4
81.9950000000000	0	n/a	49198	KeyDown	41324	4	Index	4
82.1516666666667	0	n/a	49292	KeyDown	41324	4	Index	4
82.2566666666667	0	n/a	49355	KeyDown	41324	1	Little	4
82.3916666666667	0	n/a	49436	KeyDown	41324	3	Middle	4
82.5166666666667	0	n/a	49511	KeyDown	41324	2	Ring	4
82.6600000000000	0	n/a	49597	KeyDown	41324	4	Index	4
82.8000000000000	0	n/a	49681	KeyDown	41324	4	Index	4
82.9050000000000	0	n/a	49744	KeyDown	41324	1	Little	4
83.0400000000000	0	n/a	49825	KeyDown	41324	3	Middle	4
83.1550000000000	0	n/a	49894	KeyDown	41324	2	Ring	4
83.3383333333333	0	n/a	50004	KeyDown	41324	4	Index	4
83.5100000000000	0	n/a	50107	KeyDown	41324	4	Index	4
83.6866666666667	0	n/a	50213	KeyDown	41324	1	Little	4
84.0600000000000	0	n/a	50437	KeyDown	41324	3	Middle	4
84.1700000000000	0	n/a	50503	KeyDown	41324	2	Ring	4
84.2300000000000	0	n/a	50539	StopPractice	41324	n/a	n/a	4
84.2316666666667	0	n/a	50540	StartRest	XXXXX	n/a	n/a	4
94.2733333333333	0	n/a	56565	StopRest	XXXXX	n/a	n/a	4
94.2750000000000	0	UPPT001	56566	StartPractice	41324	n/a	n/a	5
94.6616666666667	0	n/a	56798	KeyDown	41324	4	Index	5
94.7983333333333	0	n/a	56880	KeyDown	41324	1	Little	5
95.0300000000000	0	n/a	57019	KeyDown	41324	3	Middle	5
95.1816666666667	0	n/a	57110	KeyDown	41324	2	Ring	5
95.3266666666667	0	n/a	57197	KeyDown	41324	4	Index	5
95.4716666666667	0	n/a	57284	KeyDown	41324	4	Index	5
95.5500000000000	0	n/a	57331	KeyDown	41324	1	Little	5
95.6783333333333	0	n/a	57408	KeyDown	41324	3	Middle	5
95.7866666666667	0	n/a	57473	KeyDown	41324	2	Ring	5
95.9516666666667	0	n/a	57572	KeyDown	41324	4	Index	5
96.0833333333333	0	n/a	57651	KeyDown	41324	4	Index	5
96.3533333333333	0	n/a	57813	KeyDown	41324	1	Little	5
96.6916666666667	0	n/a	58016	KeyDown	41324	3	Middle	5
96.7983333333333	0	n/a	58080	KeyDown	41324	2	Ring	5
96.9500000000000	0	n/a	58171	KeyDown	41324	4	Index	5
97.1100000000000	0	n/a	58267	KeyDown	41324	4	Index	5
97.2383333333333	0	n/a	58344	KeyDown	41324	1	Little	5
97.4533333333333	0	n/a	58473	KeyDown	41324	3	Middle	5
97.5816666666667	0	n/a	58550	KeyDown	41324	2	Ring	5
97.7166666666667	0	n/a	58631	KeyDown	41324	4	Index	5
97.8616666666667	0	n/a	58718	KeyDown	41324	4	Index	5
97.9533333333333	0	n/a	58773	KeyDown	41324	1	Little	5
98.0866666666667	0	n/a	58853	KeyDown	41324	3	Middle	5
98.2116666666667	0	n/a	58928	KeyDown	41324	2	Ring	5
98.3666666666667	0	n/a	59021	KeyDown	41324	4	Index	5
98.4950000000000	0	n/a	59098	KeyDown	41324	4	Index	5
98.6066666666667	0	n/a	59165	KeyDown	41324	1	Little	5
98.7200000000000	0	n/a	59233	KeyDown	41324	3	Middle	5
98.8366666666667	0	n/a	59303	KeyDown	41324	2	Ring	5
98.9833333333333	0	n/a	59391	KeyDown	41324	4	Index	5
99.1983333333333	0	n/a	59520	KeyDown	41324	4	Index	5
99.3650000000000	0	n/a	59620	KeyDown	41324	1	Little	5
99.5483333333333	0	n/a	59730	KeyDown	41324	3	Middle	5
99.6466666666667	0	n/a	59789	KeyDown	41324	2	Ring	5
99.8483333333333	0	n/a	59910	KeyDown	41324	4	Index	5
100.0233333333333	0	n/a	60015	KeyDown	41324	4	Index	5
100.1333333333333	0	n/a	60081	KeyDown	41324	1	Little	5
100.3216666666667	0	n/a	60194	KeyDown	41324	3	Middle	5
100.4266666666667	0	n/a	60257	KeyDown	41324	2	Ring	5
100.5666666666667	0	n/a	60341	KeyDown	41324	4	Index	5
100.7366666666667	0	n/a	60443	KeyDown	41324	4	Index	5
100.8533333333333	0	n/a	60513	KeyDown	41324	1	Little	5
100.9900000000000	0	n/a	60595	KeyDown	41324	3	Middle	5
101.1066666666667	0	n/a	60665	KeyDown	41324	2	Ring	5
101.2350000000000	0	n/a	60742	KeyDown	41324	4	Index	5
101.3716666666667	0	n/a	60824	KeyDown	41324	4	Index	5
101.4733333333333	0	n/a	60885	KeyDown	41324	1	Little	5
101.5900000000000	0	n/a	60955	KeyDown	41324	3	Middle	5
101.7233333333333	0	n/a	61035	KeyDown	41324	2	Ring	5
101.8766666666667	0	n/a	61127	KeyDown	41324	4	Index	5
102.0633333333333	0	n/a	61239	KeyDown	41324	4	Index	5
102.2166666666667	0	n/a	61331	KeyDown	41324	1	Little	5
102.5450000000000	0	n/a	61528	KeyDown	41324	3	Middle	5
102.6383333333333	0	n/a	61584	KeyDown	41324	2	Ring	5
102.8183333333333	0	n/a	61692	KeyDown	41324	4	Index	5
102.9583333333333	0	n/a	61776	KeyDown	41324	4	Index	5
103.0666666666667	0	n/a	61841	KeyDown	41324	1	Little	5
103.1816666666667	0	n/a	61910	KeyDown	41324	3	Middle	5
103.3066666666667	0	n/a	61985	KeyDown	41324	2	Ring	5
103.4900000000000	0	n/a	62095	KeyDown	41324	4	Index	5
103.6283333333333	0	n/a	62178	KeyDown	41324	4	Index	5
103.7316666666667	0	n/a	62240	KeyDown	41324	1	Little	5
103.8633333333333	0	n/a	62319	KeyDown	41324	3	Middle	5
103.9716666666667	0	n/a	62384	KeyDown	41324	2	Ring	5
104.1766666666667	0	n/a	62507	KeyDown	41324	4	Index	5
104.3216666666667	0	n/a	62594	StopPractice	41324	n/a	n/a	5
104.3233333333333	0	n/a	62595	StartRest	XXXXX	n/a	n/a	5
114.3650000000000	0	n/a	68620	StopRest	XXXXX	n/a	n/a	5
114.3666666666667	0	UPPT001	68621	StartPractice	41324	n/a	n/a	6
114.8200000000000	0	n/a	68893	KeyDown	41324	4	Index	6
114.9516666666667	0	n/a	68972	KeyDown	41324	1	Little	6
115.1233333333333	0	n/a	69075	KeyDown	41324	3	Middle	6
115.2566666666667	0	n/a	69155	KeyDown	41324	2	Ring	6
115.4016666666667	0	n/a	69242	KeyDown	41324	4	Index	6
115.5616666666667	0	n/a	69338	KeyDown	41324	4	Index	6
115.6400000000000	0	n/a	69385	KeyDown	41324	1	Little	6
115.7550000000000	0	n/a	69454	KeyDown	41324	3	Middle	6
115.8816666666667	0	n/a	69530	KeyDown	41324	2	Ring	6
116.0233333333333	0	n/a	69615	KeyDown	41324	4	Index	6
116.2233333333333	0	n/a	69735	KeyDown	41324	4	Index	6
116.3883333333333	0	n/a	69834	KeyDown	41324	1	Little	6
116.5733333333333	0	n/a	69945	KeyDown	41324	3	Middle	6
116.7083333333333	0	n/a	70026	KeyDown	41324	2	Ring	6
116.8700000000000	0	n/a	70123	KeyDown	41324	4	Index	6
117.0166666666667	0	n/a	70211	KeyDown	41324	4	Index	6
117.0966666666667	0	n/a	70259	KeyDown	41324	1	Little	6
117.2183333333333	0	n/a	70332	KeyDown	41324	3	Middle	6
117.3450000000000	0	n/a	70408	KeyDown	41324	2	Ring	6
117.4833333333333	0	n/a	70491	KeyDown	41324	4	Index	6
117.6266666666667	0	n/a	70577	KeyDown	41324	4	Index	6
117.7650000000000	0	n/a	70660	KeyDown	41324	1	Little	6
117.8983333333333	0	n/a	70740	KeyDown	41324	3	Middle	6
118.0400000000000	0	n/a	70825	KeyDown	41324	2	Ring	6
118.1950000000000	0	n/a	70918	KeyDown	41324	4	Index	6
118.3200000000000	0	n/a	70993	KeyDown	41324	4	Index	6
118.4466666666667	0	n/a	71069	KeyDown	41324	1	Little	6
118.5633333333333	0	n/a	71139	KeyDown	41324	3	Middle	6
118.7050000000000	0	n/a	71224	KeyDown	41324	2	Ring	6
118.8600000000000	0	n/a	71317	KeyDown	41324	4	Index	6
118.9750000000000	0	n/a	71386	KeyDown	41324	4	Index	6
119.0833333333333	0	n/a	71451	KeyDown	41324	1	Little	6
119.1983333333333	0	n/a	71520	KeyDown	41324	3	Middle	6
119.2983333333333	0	n/a	71580	KeyDown	41324	2	Ring	6
119.4300000000000	0	n/a	71659	KeyDown	41324	4	Index	6
119.5750000000000	0	n/a	71746	KeyDown	41324	4	Index	6
119.6916666666667	0	n/a	71816	KeyDown	41324	1	Little	6
119.8083333333333	0	n/a	71886	KeyDown	41324	3	Middle	6
119.9150000000000	0	n/a	71950	KeyDown	41324	2	Ring	6
120.0433333333333	0	n/a	72027	KeyDown	41324	4	Index	6
120.1983333333333	0	n/a	72120	KeyDown	41324	4	Index	6
120.3066666666667	0	n/a	72185	KeyDown	41324	1	Little	6
120.4183333333333	0	n/a	72252	KeyDown	41324	3	Middle	6
120.5250000000000	0	n/a	72316	KeyDown	41324	2	Ring	6
120.6700000000000	0	n/a	72403	KeyDown	41324	4	Index	6
120.8083333333333	0	n/a	72486	KeyDown	41324	4	Index	6
120.9283333333333	0	n/a	72558	KeyDown	41324	1	Little	6
121.0450000000000	0	n/a	72628	KeyDown	41324	3	Middle	6
121.1483333333333	0	n/a	72690	KeyDown	41324	2	Ring	6
121.2950000000000	0	n/a	72778	KeyDown	41324	4	Index	6
121.4383333333333	0	n/a	72864	KeyDown	41324	4	Index	6
121.5600000000000	0	n/a	72937	KeyDown	41324	1	Little	6
121.6683333333333	0	n/a	73002	KeyDown	41324	3	Middle	6
121.7800000000000	0	n/a	73069	KeyDown	41324	2	Ring	6
121.9150000000000	0	n/a	73150	KeyDown	41324	4	Index	6
122.0750000000000	0	n/a	73246	KeyDown	41324	4	Index	6
122.2083333333333	0	n/a	73326	KeyDown	41324	1	Little	6
122.3366666666667	0	n/a	73403	KeyDown	41324	3	Middle	6
122.4900000000000	0	n/a	73495	KeyDown	41324	2	Ring	6
122.6250000000000	0	n/a	73576	KeyDown	41324	4	Index	6
122.7833333333333	0	n/a	73671	KeyDown	41324	4	Index	6
122.9300000000000	0	n/a	73759	KeyDown	41324	1	Little	6
123.0316666666667	0	n/a	73820	KeyDown	41324	3	Middle	6
123.1800000000000	0	n/a	73909	KeyDown	41324	2	Ring	6
123.3066666666667	0	n/a	73985	KeyDown	41324	4	Index	6
123.4700000000000	0	n/a	74083	KeyDown	41324	4	Index	6
123.6133333333333	0	n/a	74169	KeyDown	41324	1	Little	6
123.7250000000000	0	n/a	74236	KeyDown	41324	3	Middle	6
123.8300000000000	0	n/a	74299	KeyDown	41324	2	Ring	6
123.9750000000000	0	n/a	74386	KeyDown	41324	4	Index	6
124.1383333333333	0	n/a	74484	KeyDown	41324	4	Index	6
124.2733333333333	0	n/a	74565	KeyDown	41324	1	Little	6
124.3583333333333	0	n/a	74616	KeyDown	41324	3	Middle	6
124.4133333333333	0	n/a	74649	StopPractice	41324	n/a	n/a	6
124.4150000000000	0	n/a	74650	StartRest	XXXXX	n/a	n/a	6
134.4566666666667	0	n/a	80675	StopRest	XXXXX	n/a	n/a	6
134.4583333333333	0	UPPT001	80676	StartPractice	41324	n/a	n/a	7
134.8550000000000	0	n/a	80914	KeyDown	41324	4	Index	7
134.9850000000000	0	n/a	80992	KeyDown	41324	1	Little	7
135.1916666666667	0	n/a	81116	KeyDown	41324	3	Middle	7
135.3016666666667	0	n/a	81182	KeyDown	41324	2	Ring	7
135.4366666666667	0	n/a	81263	KeyDown	41324	4	Index	7
135.5916666666667	0	n/a	81356	KeyDown	41324	4	Index	7
135.6866666666667	0	n/a	81413	KeyDown	41324	1	Little	7
135.7850000000000	0	n/a	81472	KeyDown	41324	3	Middle	7
135.9016666666667	0	n/a	81542	KeyDown	41324	2	Ring	7
136.0616666666667	0	n/a	81638	KeyDown	41324	4	Index	7
136.1866666666667	0	n/a	81713	KeyDown	41324	4	Index	7
136.3050000000000	0	n/a	81784	KeyDown	41324	1	Little	7
136.4266666666667	0	n/a	81857	KeyDown	41324	3	Middle	7
136.5200000000000	0	n/a	81913	KeyDown	41324	2	Ring	7
136.6600000000000	0	n/a	81997	KeyDown	41324	4	Index	7
136.8100000000000	0	n/a	82087	KeyDown	41324	4	Index	7
136.9266666666667	0	n/a	82157	KeyDown	41324	1	Little	7
137.0616666666667	0	n/a	82238	KeyDown	41324	3	Middle	7
137.1650000000000	0	n/a	82300	KeyDown	41324	2	Ring	7
137.3066666666667	0	n/a	82385	KeyDown	41324	4	Index	7
137.4416666666667	0	n/a	82466	KeyDown	41324	4	Index	7
137.6000000000000	0	n/a	82561	KeyDown	41324	1	Little	7
137.7200000000000	0	n/a	82633	KeyDown	41324	3	Middle	7
137.8066666666667	0	n/a	82685	KeyDown	41324	2	Ring	7
137.9766666666667	0	n/a	82787	KeyDown	41324	4	Index	7
138.0933333333333	0	n/a	82857	KeyDown	41324	4	Index	7
138.2450000000000	0	n/a	82948	KeyDown	41324	1	Little	7
138.3600000000000	0	n/a	83017	KeyDown	41324	3	Middle	7
138.4600000000000	0	n/a	83077	KeyDown	41324	2	Ring	7
138.6150000000000	0	n/a	83170	KeyDown	41324	4	Index	7
138.7250000000000	0	n/a	83236	KeyDown	41324	4	Index	7
138.8800000000000	0	n/a	83329	KeyDown	41324	1	Little	7
139.0000000000000	0	n/a	83401	KeyDown	41324	3	Middle	7
139.1000000000000	0	n/a	83461	KeyDown	41324	2	Ring	7
139.2600000000000	0	n/a	83557	KeyDown	41324	4	Index	7
139.3900000000000	0	n/a	83635	KeyDown	41324	4	Index	7
139.5716666666667	0	n/a	83744	KeyDown	41324	1	Little	7
139.6450000000000	0	n/a	83788	KeyDown	41324	3	Middle	7
139.9966666666667	0	n/a	83999	KeyDown	41324	2	Ring	7
140.3516666666667	0	n/a	84212	KeyDown	41324	4	Index	7
140.5100000000000	0	n/a	84307	KeyDown	41324	4	Index	7
140.6450000000000	0	n/a	84388	KeyDown	41324	1	Little	7
140.8116666666667	0	n/a	84488	KeyDown	41324	3	Middle	7
140.9300000000000	0	n/a	84559	KeyDown	41324	2	Ring	7
141.1116666666667	0	n/a	84668	KeyDown	41324	4	Index	7
141.2450000000000	0	n/a	84748	KeyDown	41324	4	Index	7
141.3666666666667	0	n/a	84821	KeyDown	41324	1	Little	7
141.5166666666667	0	n/a	84911	KeyDown	41324	3	Middle	7
141.7966666666667	0	n/a	85079	KeyDown	41324	2	Ring	7
142.0250000000000	0	n/a	85216	KeyDown	41324	4	Index	7
142.1733333333333	0	n/a	85305	KeyDown	41324	4	Index	7
142.8766666666667	0	n/a	85727	KeyDown	41324	1	Little	7
143.0066666666667	0	n/a	85805	KeyDown	41324	3	Middle	7
143.1133333333333	0	n/a	85869	KeyDown	41324	2	Ring	7
143.2716666666667	0	n/a	85964	KeyDown	41324	4	Index	7
143.4016666666667	0	n/a	86042	KeyDown	41324	4	Index	7
143.4933333333333	0	n/a	86097	KeyDown	41324	1	Little	7
143.6000000000000	0	n/a	86161	KeyDown	41324	3	Middle	7
143.6916666666667	0	n/a	86216	KeyDown	41324	2	Ring	7
143.9550000000000	0	n/a	86374	KeyDown	41324	4	Index	7
144.1233333333333	0	n/a	86475	KeyDown	41324	4	Index	7
144.2116666666667	0	n/a	86528	KeyDown	41324	1	Little	7
144.3716666666667	0	n/a	86624	KeyDown	41324	3	Middle	7
144.5050000000000	0	n/a	86704	StopPractice	41324	n/a	n/a	7
144.5066666666667	0	n/a	86705	StartRest	XXXXX	n/a	n/a	7
154.5483333333333	0	n/a	92730	StopRest	XXXXX	n/a	n/a	7
154.5500000000000	0	UPPT001	92731	StartPractice	41324	n/a	n/a	8
155.0066666666667	0	n/a	93005	KeyDown	41324	4	Index	8
155.1416666666667	0	n/a	93086	KeyDown	41324	1	Little	8
155.3033333333333	0	n/a	93183	KeyDown	41324	3	Middle	8
155.4066666666667	0	n/a	93245	KeyDown	41324	2	Ring	8
155.5716666666667	0	n/a	93344	KeyDown	41324	4	Index	8
155.7133333333333	0	n/a	93429	KeyDown	41324	4	Index	8
155.8083333333333	0	n/a	93486	KeyDown	41324	1	Little	8
155.9083333333333	0	n/a	93546	KeyDown	41324	3	Middle	8
155.9916666666667	0	n/a	93596	KeyDown	41324	2	Ring	8
156.1566666666667	0	n/a	93695	KeyDown	41324	4	Index	8
156.3016666666667	0	n/a	93782	KeyDown	41324	4	Index	8
156.4950000000000	0	n/a	93898	KeyDown	41324	1	Little	8
156.7616666666667	0	n/a	94058	KeyDown	41324	3	Middle	8
156.9266666666667	0	n/a	94157	KeyDown	41324	2	Ring	8
157.0916666666667	0	n/a	94256	KeyDown	41324	4	Index	8
157.2366666666667	0	n/a	94343	KeyDown	41324	4	Index	8
157.3666666666667	0	n/a	94421	KeyDown	41324	1	Little	8
157.4566666666667	0	n/a	94475	KeyDown	41324	3	Middle	8
157.5266666666667	0	n/a	94517	KeyDown	41324	2	Ring	8
157.6833333333333	0	n/a	94611	KeyDown	41324	4	Index	8
157.8483333333334	0	n/a	94710	KeyDown	41324	4	Index	8
158.0866666666667	0	n/a	94853	KeyDown	41324	3	Middle	8
158.1733333333333	0	n/a	94905	KeyDown	41324	2	Ring	8
158.2483333333333	0	n/a	94950	KeyDown	41324	1	Little	8
159.1300000000000	0	n/a	95479	KeyDown	41324	4	Index	8
159.2716666666667	0	n/a	95564	KeyDown	41324	4	Index	8
159.3950000000000	0	n/a	95638	KeyDown	41324	1	Little	8
159.5616666666667	0	n/a	95738	KeyDown	41324	3	Middle	8
159.6533333333333	0	n/a	95793	KeyDown	41324	2	Ring	8
159.8266666666667	0	n/a	95897	KeyDown	41324	4	Index	8
159.9683333333333	0	n/a	95982	KeyDown	41324	4	Index	8
160.4183333333334	0	n/a	96252	KeyDown	41324	1	Little	8
160.5316666666667	0	n/a	96320	KeyDown	41324	3	Middle	8
160.6600000000000	0	n/a	96397	KeyDown	41324	2	Ring	8
160.8000000000000	0	n/a	96481	KeyDown	41324	4	Index	8
160.9533333333333	0	n/a	96573	KeyDown	41324	4	Index	8
161.0800000000000	0	n/a	96649	KeyDown	41324	1	Little	8
161.1983333333334	0	n/a	96720	KeyDown	41324	3	Middle	8
161.2766666666667	0	n/a	96767	KeyDown	41324	2	Ring	8
161.4916666666667	0	n/a	96896	KeyDown	41324	4	Index	8
161.6316666666667	0	n/a	96980	KeyDown	41324	4	Index	8
161.7433333333333	0	n/a	97047	KeyDown	41324	1	Little	8
161.9233333333333	0	n/a	97155	KeyDown	41324	3	Middle	8
161.9866666666667	0	n/a	97193	KeyDown	41324	2	Ring	8
162.2133333333333	0	n/a	97329	KeyDown	41324	4	Index	8
162.3766666666667	0	n/a	97427	KeyDown	41324	4	Index	8
162.5116666666667	0	n/a	97508	KeyDown	41324	1	Little	8
162.7066666666667	0	n/a	97625	KeyDown	41324	3	Middle	8
162.8566666666667	0	n/a	97715	KeyDown	41324	2	Ring	8
163.3716666666667	0	n/a	98024	KeyDown	41324	4	Index	8
163.5366666666667	0	n/a	98123	KeyDown	41324	4	Index	8
163.6600000000000	0	n/a	98197	KeyDown	41324	1	Little	8
163.8183333333334	0	n/a	98292	KeyDown	41324	2	Ring	8
164.3266666666667	0	n/a	98597	KeyDown	41324	3	Middle	8
164.5966666666667	0	n/a	98759	StopPractice	41324	n/a	n/a	8
164.5983333333334	0	n/a	98760	StartRest	XXXXX	n/a	n/a	8
174.6400000000000	0	n/a	104785	StopRest	XXXXX	n/a	n/a	8
174.6416666666667	0	UPPT001	104786	StartPractice	41324	n/a	n/a	9
175.0816666666667	0	n/a	105050	KeyDown	41324	4	Index	9
175.2000000000000	0	n/a	105121	KeyDown	41324	1	Little	9
175.4450000000000	0	n/a	105268	KeyDown	41324	3	Middle	9
175.5583333333333	0	n/a	105336	KeyDown	41324	2	Ring	9
175.7183333333333	0	n/a	105432	KeyDown	41324	4	Index	9
175.9083333333333	0	n/a	105546	KeyDown	41324	4	Index	9
176.0683333333334	0	n/a	105642	KeyDown	41324	1	Little	9
176.2316666666667	0	n/a	105740	KeyDown	41324	3	Middle	9
176.3200000000000	0	n/a	105793	KeyDown	41324	2	Ring	9
176.4633333333333	0	n/a	105879	KeyDown	41324	4	Index	9
176.6033333333334	0	n/a	105963	KeyDown	41324	4	Index	9
176.7100000000000	0	n/a	106027	KeyDown	41324	1	Little	9
176.9233333333333	0	n/a	106155	KeyDown	41324	3	Middle	9
177.0450000000000	0	n/a	106228	KeyDown	41324	2	Ring	9
177.2600000000000	0	n/a	106357	KeyDown	41324	4	Index	9
177.3950000000000	0	n/a	106438	KeyDown	41324	4	Index	9
177.5283333333333	0	n/a	106518	KeyDown	41324	1	Little	9
177.8250000000000	0	n/a	106696	KeyDown	41324	3	Middle	9
177.9033333333333	0	n/a	106743	KeyDown	41324	2	Ring	9
178.1016666666667	0	n/a	106862	KeyDown	41324	4	Index	9
178.2483333333333	0	n/a	106950	KeyDown	41324	4	Index	9
178.3733333333333	0	n/a	107025	KeyDown	41324	1	Little	9
178.5533333333333	0	n/a	107133	KeyDown	41324	3	Middle	9
178.6533333333333	0	n/a	107193	KeyDown	41324	2	Ring	9
178.7950000000000	0	n/a	107278	KeyDown	41324	4	Index	9
178.9650000000000	0	n/a	107380	KeyDown	41324	4	Index	9
179.0783333333333	0	n/a	107448	KeyDown	41324	1	Little	9
179.2400000000000	0	n/a	107545	KeyDown	41324	3	Middle	9
179.3283333333333	0	n/a	107598	KeyDown	41324	2	Ring	9
179.4850000000000	0	n/a	107692	KeyDown	41324	4	Index	9
179.6516666666667	0	n/a	107792	KeyDown	41324	4	Index	9
179.7833333333333	0	n/a	107871	KeyDown	41324	1	Little	9
179.9350000000000	0	n/a	107962	KeyDown	41324	3	Middle	9
180.0250000000000	0	n/a	108016	KeyDown	41324	2	Ring	9
180.2333333333333	0	n/a	108141	KeyDown	41324	4	Index	9
180.4016666666667	0	n/a	108242	KeyDown	41324	4	Index	9
180.5633333333333	0	n/a	108339	KeyDown	41324	1	Little	9
180.7350000000000	0	n/a	108442	KeyDown	41324	2	Ring	9
181.1433333333333	0	n/a	108687	KeyDown	41324	3	Middle	9
181.3950000000000	0	n/a	108838	KeyDown	41324	4	Index	9
181.5883333333333	0	n/a	108954	KeyDown	41324	4	Index	9
181.7450000000000	0	n/a	109048	KeyDown	41324	1	Little	9
181.9266666666667	0	n/a	109157	KeyDown	41324	3	Middle	9
182.0350000000000	0	n/a	109222	KeyDown	41324	2	Ring	9
182.2100000000000	0	n/a	109327	KeyDown	41324	4	Index	9
182.3800000000000	0	n/a	109429	KeyDown	41324	4	Index	9
182.5800000000000	0	n/a	109549	KeyDown	41324	1	Little	9
182.8283333333333	0	n/a	109698	KeyDown	41324	3	Middle	9
182.9316666666667	0	n/a	109760	KeyDown	41324	2	Ring	9
183.1183333333333	0	n/a	109872	KeyDown	41324	4	Index	9
183.2950000000000	0	n/a	109978	KeyDown	41324	4	Index	9
183.4216666666667	0	n/a	110054	KeyDown	41324	1	Little	9
183.6000000000000	0	n/a	110161	KeyDown	41324	3	Middle	9
183.7150000000000	0	n/a	110230	KeyDown	41324	2	Ring	9
183.8000000000000	0	n/a	110281	KeyDown	41324	4	Index	9
183.9766666666667	0	n/a	110387	KeyDown	41324	4	Index	9
184.1466666666667	0	n/a	110489	KeyDown	41324	1	Little	9
184.3550000000000	0	n/a	110614	KeyDown	41324	2	Ring	9
184.4333333333333	0	n/a	110661	KeyDown	41324	3	Middle	9
184.6883333333333	0	n/a	110814	StopPractice	41324	n/a	n/a	9
184.6900000000000	0	n/a	110815	StartRest	XXXXX	n/a	n/a	9
194.7333333333333	0	n/a	116841	StopRest	XXXXX	n/a	n/a	9
