onset	duration	channel	onset_sample_idx	event_type	target_sequence	keypress_id	finger_label	trial_number
2.1066666666667	0	UPPT001	1265	StartPractice	41324	n/a	n/a	1
3.3250000000000	0	n/a	1996	KeyDown	41324	4	Index	1
3.8183333333333	0	n/a	2292	KeyDown	41324	1	Little	1
4.5416666666667	0	n/a	2726	KeyDown	41324	3	Middle	1
6.8300000000000	0	n/a	4099	KeyDown	41324	2	Ring	1
7.1300000000000	0	n/a	4279	KeyDown	41324	4	Index	1
8.2483333333333	0	n/a	4950	KeyDown	41324	4	Index	1
10.8966666666667	0	n/a	6539	KeyDown	41324	1	Little	1
11.7316666666667	0	n/a	7040	KeyDown	41324	3	Middle	1
12.1450000000000	0	n/a	7288	StopPractice	41324	n/a	n/a	1
12.1466666666667	0	n/a	7289	StartRest	XXXXX	n/a	n/a	1
22.1816666666667	0	n/a	13310	StopRest	XXXXX	n/a	n/a	1
22.1833333333333	0	UPPT001	13311	StartPractice	41324	n/a	n/a	2
23.0700000000000	0	n/a	13843	KeyDown	41324	4	Index	2
23.4616666666667	0	n/a	14078	KeyDown	41324	1	Little	2
24.5566666666667	0	n/a	14735	KeyDown	41324	3	Middle	2
25.2116666666667	0	n/a	15128	KeyDown	41324	2	Ring	2
26.1300000000000	0	n/a	15679	KeyDown	41324	4	Index	2
26.5500000000000	0	n/a	15931	KeyDown	41324	4	Index	2
27.3766666666667	0	n/a	16427	KeyDown	41324	1	Little	2
28.7600000000000	0	n/a	17257	KeyDown	41324	3	Middle	2
29.6650000000000	0	n/a	17800	KeyDown	41324	2	Ring	2
29.9816666666667	0	n/a	17990	KeyDown	41324	4	Index	2
30.4916666666667	0	n/a	18296	KeyDown	41324	4	Index	2
30.8516666666667	0	n/a	18512	KeyDown	41324	1	Little	2
31.6366666666667	0	n/a	18983	KeyDown	41324	3	Middle	2
32.2216666666667	0	n/a	19334	StopPractice	41324	n/a	n/a	2
32.2233333333333	0	n/a	19335	StartRest	XXXXX	n/a	n/a	2
42.2550000000000	0	n/a	25354	StopRest	XXXXX	n/a	n/a	2
42.2566666666667	0	UPPT001	25355	StartPractice	41324	n/a	n/a	3
43.0200000000000	0	n/a	25813	KeyDown	41324	4	Index	3
43.3950000000000	0	n/a	26038	KeyDown	41324	1	Little	3
44.4650000000000	0	n/a	26680	KeyDown	41324	3	Middle	3
45.6100000000000	0	n/a	27367	KeyDown	41324	2	Ring	3
45.9516666666667	0	n/a	27572	KeyDown	41324	4	Index	3
46.3000000000000	0	n/a	27781	KeyDown	41324	4	Index	3
46.6966666666667	0	n/a	28019	KeyDown	41324	1	Little	3
47.2083333333333	0	n/a	28326	KeyDown	41324	3	Middle	3
47.6050000000000	0	n/a	28564	KeyDown	41324	2	Ring	3
47.9600000000000	0	n/a	28777	KeyDown	41324	4	Index	3
48.3083333333333	0	n/a	28986	KeyDown	41324	4	Index	3
48.5950000000000	0	n/a	29158	KeyDown	41324	1	Little	3
49.2433333333333	0	n/a	29547	KeyDown	41324	3	Middle	3
50.1616666666667	0	n/a	30098	KeyDown	41324	2	Ring	3
50.9100000000000	0	n/a	30547	KeyDown	41324	4	Index	3
51.2500000000000	0	n/a	30751	KeyDown	41324	4	Index	3
52.2950000000000	0	n/a	31378	StopPractice	41324	n/a	n/a	3
52.2966666666667	0	n/a	31379	StartRest	XXXXX	n/a	n/a	3
62.3300000000000	0	n/a	37399	StopRest	XXXXX	n/a	n/a	3
62.3316666666667	0	UPPT001	37400	StartPractice	41324	n/a	n/a	4
63.0583333333333	0	n/a	37836	KeyDown	41324	4	Index	4
63.4333333333333	0	n/a	38061	KeyDown	41324	1	Little	4
64.2000000000000	0	n/a	38521	KeyDown	41324	3	Middle	4
64.8400000000000	0	n/a	38905	KeyDown	41324	2	Ring	4
65.1683333333333	0	n/a	39102	KeyDown	41324	4	Index	4
65.4600000000000	0	n/a	39277	KeyDown	41324	4	Index	4
65.7650000000000	0	n/a	39460	KeyDown	41324	1	Little	4
66.5350000000000	0	n/a	39922	KeyDown	41324	3	Middle	4
67.0133333333333	0	n/a	40209	KeyDown	41324	2	Ring	4
67.3350000000000	0	n/a	40402	KeyDown	41324	4	Index	4
67.6500000000000	0	n/a	40591	KeyDown	41324	4	Index	4
67.9283333333333	0	n/a	40758	KeyDown	41324	1	Little	4
68.5100000000000	0	n/a	41107	KeyDown	41324	3	Middle	4
69.3133333333333	0	n/a	41589	KeyDown	41324	2	Ring	4
69.6000000000000	0	n/a	41761	KeyDown	41324	4	Index	4
70.0350000000000	0	n/a	42022	KeyDown	41324	4	Index	4
70.4266666666667	0	n/a	42257	KeyDown	41324	1	Little	4
71.2933333333333	0	n/a	42777	KeyDown	41324	3	Middle	4
71.6316666666667	0	n/a	42980	KeyDown	41324	2	Ring	4
72.3700000000000	0	n/a	43423	StopPractice	41324	n/a	n/a	4
72.3716666666667	0	n/a	43424	StartRest	XXXXX	n/a	n/a	4
82.4083333333333	0	n/a	49446	StopRest	XXXXX	n/a	n/a	4
82.4100000000000	0	UPPT001	49447	StartPractice	41324	n/a	n/a	5
83.0416666666667	0	n/a	49826	KeyDown	41324	4	Index	5
83.4483333333333	0	n/a	50070	KeyDown	41324	1	Little	5
84.3283333333333	0	n/a	50598	KeyDown	41324	3	Middle	5
84.7066666666667	0	n/a	50825	KeyDown	41324	2	Ring	5
85.0433333333333	0	n/a	51027	KeyDown	41324	4	Index	5
85.3383333333333	0	n/a	51204	KeyDown	41324	4	Index	5
85.7050000000000	0	n/a	51424	KeyDown	41324	1	Little	5
86.1333333333333	0	n/a	51681	KeyDown	41324	3	Middle	5
86.6233333333333	0	n/a	51975	KeyDown	41324	2	Ring	5
87.0283333333333	0	n/a	52218	KeyDown	41324	4	Index	5
87.3833333333333	0	n/a	52431	KeyDown	41324	4	Index	5
87.7083333333333	0	n/a	52626	KeyDown	41324	1	Little	5
88.5050000000000	0	n/a	53104	KeyDown	41324	3	Middle	5
89.1166666666667	0	n/a	53471	KeyDown	41324	2	Ring	5
89.6433333333333	0	n/a	53787	KeyDown	41324	4	Index	5
89.9466666666667	0	n/a	53969	KeyDown	41324	4	Index	5
90.2766666666667	0	n/a	54167	KeyDown	41324	1	Little	5
91.3316666666667	0	n/a	54800	KeyDown	41324	3	Middle	5
92.1766666666667	0	n/a	55307	KeyDown	41324	2	Ring	5
92.4483333333333	0	n/a	55470	StopPractice	41324	n/a	n/a	5
92.4500000000000	0	n/a	55471	StartRest	XXXXX	n/a	n/a	5
102.4800000000000	0	n/a	61489	StopRest	XXXXX	n/a	n/a	5
102.4816666666667	0	UPPT001	61490	StartPractice	41324	n/a	n/a	6
103.3050000000000	0	n/a	61984	KeyDown	41324	4	Index	6
103.7000000000000	0	n/a	62221	KeyDown	41324	1	Little	6
104.4550000000000	0	n/a	62674	KeyDown	41324	3	Middle	6
105.0600000000000	0	n/a	63037	KeyDown	41324	2	Ring	6
105.4516666666667	0	n/a	63272	KeyDown	41324	4	Index	6
105.7250000000000	0	n/a	63436	KeyDown	41324	4	Index	6
106.1033333333333	0	n/a	63663	KeyDown	41324	1	Little	6
106.5833333333333	0	n/a	63951	KeyDown	41324	3	Middle	6
106.9383333333333	0	n/a	64164	KeyDown	41324	2	Ring	6
107.2650000000000	0	n/a	64360	KeyDown	41324	4	Index	6
107.6700000000000	0	n/a	64603	KeyDown	41324	4	Index	6
108.0250000000000	0	n/a	64816	KeyDown	41324	1	Little	6
108.5433333333333	0	n/a	65127	KeyDown	41324	3	Middle	6
108.9033333333333	0	n/a	65343	KeyDown	41324	2	Ring	6
109.2650000000000	0	n/a	65560	KeyDown	41324	4	Index	6
109.5883333333333	0	n/a	65754	KeyDown	41324	4	Index	6
109.9216666666667	0	n/a	65954	KeyDown	41324	1	Little	6
110.8683333333333	0	n/a	66522	KeyDown	41324	3	Middle	6
111.1950000000000	0	n/a	66718	KeyDown	41324	2	Ring	6
111.7733333333333	0	n/a	67065	KeyDown	41324	4	Index	6
112.1550000000000	0	n/a	67294	KeyDown	41324	4	Index	6
112.5200000000000	0	n/a	67513	StopPractice	41324	n/a	n/a	6
112.5216666666667	0	n/a	67514	StartRest	XXXXX	n/a	n/a	6
122.5550000000000	0	n/a	73534	StopRest	XXXXX	n/a	n/a	6
122.5566666666667	0	UPPT001	73535	StartPractice	41324	n/a	n/a	7
123.2033333333333	0	n/a	73923	KeyDown	41324	4	Index	7
123.6000000000000	0	n/a	74161	KeyDown	41324	1	Little	7
124.0283333333333	0	n/a	74418	KeyDown	41324	3	Middle	7
124.3933333333333	0	n/a	74637	KeyDown	41324	2	Ring	7
124.7816666666667	0	n/a	74870	KeyDown	41324	4	Index	7
125.1316666666667	0	n/a	75080	KeyDown	41324	4	Index	7
125.5083333333333	0	n/a	75306	KeyDown	41324	1	Little	7
126.2433333333333	0	n/a	75747	KeyDown	41324	3	Middle	7
126.6000000000000	0	n/a	75961	KeyDown	41324	2	Ring	7
127.1600000000000	0	n/a	76297	KeyDown	41324	4	Index	7
127.5066666666667	0	n/a	76505	KeyDown	41324	4	Index	7
127.7633333333333	0	n/a	76659	KeyDown	41324	1	Little	7
128.4983333333333	0	n/a	77100	KeyDown	41324	3	Middle	7
128.8700000000000	0	n/a	77323	KeyDown	41324	2	Ring	7
129.2466666666667	0	n/a	77549	KeyDown	41324	4	Index	7
129.5616666666667	0	n/a	77738	KeyDown	41324	4	Index	7
129.8350000000000	0	n/a	77902	KeyDown	41324	1	Little	7
130.4700000000000	0	n/a	78283	KeyDown	41324	3	Middle	7
130.8300000000000	0	n/a	78499	KeyDown	41324	2	Ring	7
131.2250000000000	0	n/a	78736	KeyDown	41324	4	Index	7
131.5316666666667	0	n/a	78920	KeyDown	41324	4	Index	7
131.8166666666667	0	n/a	79091	KeyDown	41324	1	Little	7
132.5950000000000	0	n/a	79558	StopPractice	41324	n/a	n/a	7
132.5966666666667	0	n/a	79559	StartRest	XXXXX	n/a	n/a	7
142.6300000000000	0	n/a	85579	StopRest	XXXXX	n/a	n/a	7
142.6316666666667	0	UPPT001	85580	StartPractice	41324	n/a	n/a	8
143.3466666666667	0	n/a	86009	KeyDown	41324	4	Index	8
143.7300000000000	0	n/a	86239	KeyDown	41324	1	Little	8
144.1616666666667	0	n/a	86498	KeyDown	41324	3	Middle	8
144.4483333333334	0	n/a	86670	KeyDown	41324	2	Ring	8
144.7416666666667	0	n/a	86846	KeyDown	41324	4	Index	8
145.0283333333333	0	n/a	87018	KeyDown	41324	4	Index	8
145.2700000000000	0	n/a	87163	KeyDown	41324	1	Little	8
145.7283333333334	0	n/a	87438	KeyDown	41324	3	Middle	8
146.0200000000000	0	n/a	87613	KeyDown	41324	2	Ring	8
146.3200000000000	0	n/a	87793	KeyDown	41324	4	Index	8
146.6533333333333	0	n/a	87993	KeyDown	41324	4	Index	8
146.9516666666667	0	n/a	88172	KeyDown	41324	1	Little	8
147.4666666666667	0	n/a	88481	KeyDown	41324	3	Middle	8
147.7950000000000	0	n/a	88678	KeyDown	41324	2	Ring	8
148.1900000000000	0	n/a	88915	KeyDown	41324	4	Index	8
148.8083333333333	0	n/a	89286	KeyDown	41324	4	Index	8
149.0733333333334	0	n/a	89445	KeyDown	41324	1	Little	8
149.6166666666667	0	n/a	89771	KeyDown	41324	3	Middle	8
149.9300000000000	0	n/a	89959	KeyDown	41324	2	Ring	8
150.2250000000000	0	n/a	90136	KeyDown	41324	4	Index	8
150.6883333333333	0	n/a	90414	KeyDown	41324	4	Index	8
150.9283333333333	0	n/a	90558	KeyDown	41324	1	Little	8
151.4066666666667	0	n/a	90845	KeyDown	41324	3	Middle	8
151.7416666666667	0	n/a	91046	KeyDown	41324	2	Ring	8
152.0433333333334	0	n/a	91227	KeyDown	41324	4	Index	8
152.3233333333334	0	n/a	91395	KeyDown	41324	4	Index	8
152.5816666666667	0	n/a	91550	KeyDown	41324	1	Little	8
152.6700000000000	0	n/a	91603	StopPractice	41324	n/a	n/a	8
152.6716666666667	0	n/a	91604	StartRest	XXXXX	n/a	n/a	8
162.7033333333333	0	n/a	97623	StopRest	XXXXX	n/a	n/a	8
162.7050000000000	0	UPPT001	97624	StartPractice	41324	n/a	n/a	9
163.4033333333333	0	n/a	98043	KeyDown	41324	4	Index	9
163.8133333333333	0	n/a	98289	KeyDown	41324	1	Little	9
164.1633333333334	0	n/a	98499	KeyDown	41324	3	Middle	9
164.5233333333333	0	n/a	98715	KeyDown	41324	2	Ring	9
164.8933333333333	0	n/a	98937	KeyDown	41324	4	Index	9
165.1750000000000	0	n/a	99106	KeyDown	41324	4	Index	9
165.4766666666667	0	n/a	99287	KeyDown	41324	1	Little	9
165.8833333333334	0	n/a	99531	KeyDown	41324	3	Middle	9
166.1450000000000	0	n/a	99688	KeyDown	41324	2	Ring	9
166.4583333333333	0	n/a	99876	KeyDown	41324	4	Index	9
166.7616666666667	0	n/a	100058	KeyDown	41324	4	Index	9
167.0266666666667	0	n/a	100217	KeyDown	41324	1	Little	9
167.4100000000000	0	n/a	100447	KeyDown	41324	3	Middle	9
167.7016666666667	0	n/a	100622	KeyDown	41324	2	Ring	9
168.1483333333333	0	n/a	100890	KeyDown	41324	4	Index	9
168.5083333333334	0	n/a	101106	KeyDown	41324	4	Index	9
168.8550000000000	0	n/a	101314	KeyDown	41324	1	Little	9
169.5033333333333	0	n/a	101703	KeyDown	41324	3	Middle	9
169.7783333333333	0	n/a	101868	KeyDown	41324	2	Ring	9
170.0416666666667	0	n/a	102026	KeyDown	41324	4	Index	9
170.1600000000000	0	n/a	102097	KeyDown	41324	3	Middle	9
170.7950000000000	0	n/a	102478	KeyDown	41324	1	Little	9
171.3966666666667	0	n/a	102839	KeyDown	41324	3	Middle	9
171.6766666666667	0	n/a	103007	KeyDown	41324	2	Ring	9
171.9616666666667	0	n/a	103178	KeyDown	41324	4	Index	9
172.2316666666667	0	n/a	103340	KeyDown	41324	4	Index	9
172.4933333333333	0	n/a	103497	KeyDown	41324	1	Little	9
172.7433333333333	0	n/a	103647	StopPractice	41324	n/a	n/a	9
172.7450000000000	0	n/a	103648	StartRest	XXXXX	n/a	n/a	9
182.7800000000000	0	n/a	109669	StopRest	XXXXX	n/a	n/a	9
182.7816666666667	0	UPPT001	109670	StartPractice	41324	n/a	n/a	10
183.3733333333333	0	n/a	110025	KeyDown	41324	4	Index	10
183.7800000000000	0	n/a	110269	KeyDown	41324	1	Little	10
184.1466666666667	0	n/a	110489	KeyDown	41324	3	Middle	10
184.4883333333333	0	n/a	110694	KeyDown	41324	2	Ring	10
184.8066666666667	0	n/a	110885	KeyDown	41324	4	Index	10
185.1000000000000	0	n/a	111061	KeyDown	41324	4	Index	10
185.5000000000000	0	n/a	111301	KeyDown	41324	1	Little	10
185.9400000000000	0	n/a	111565	KeyDown	41324	3	Middle	10
186.2583333333334	0	n/a	111756	KeyDown	41324	2	Ring	10
186.6300000000000	0	n/a	111979	KeyDown	41324	4	Index	10
186.9150000000000	0	n/a	112150	KeyDown	41324	4	Index	10
187.1733333333333	0	n/a	112305	KeyDown	41324	1	Little	10
187.5916666666667	0	n/a	112556	KeyDown	41324	3	Middle	10
187.9183333333334	0	n/a	112752	KeyDown	41324	2	Ring	10
188.2166666666667	0	n/a	112931	KeyDown	41324	4	Index	10
188.5283333333333	0	n/a	113118	KeyDown	41324	4	Index	10
188.7983333333333	0	n/a	113280	KeyDown	41324	1	Little	10
189.1933333333334	0	n/a	113517	KeyDown	41324	3	Middle	10
189.4600000000000	0	n/a	113677	KeyDown	41324	2	Ring	10
189.8116666666667	0	n/a	113888	KeyDown	41324	4	Index	10
190.1083333333333	0	n/a	114066	KeyDown	41324	4	Index	10
190.3450000000000	0	n/a	114208	KeyDown	41324	1	Little	10
191.0083333333334	0	n/a	114606	KeyDown	41324	3	Middle	10
191.2833333333333	0	n/a	114771	KeyDown	41324	2	Ring	10
191.6433333333333	0	n/a	114987	KeyDown	41324	4	Index	10
191.9133333333334	0	n/a	115149	KeyDown	41324	4	Index	10
192.1766666666667	0	n/a	115307	KeyDown	41324	1	Little	10
192.6633333333334	0	n/a	115599	KeyDown	41324	3	Middle	10
192.8200000000000	0	n/a	115693	StopPractice	41324	n/a	n/a	10
192.8216666666667	0	n/a	115694	StartRest	XXXXX	n/a	n/a	10
202.8700000000000	0	n/a	121723	StopRest	XXXXX	n/a	n/a	10
202.8716666666667	0	UPPT001	121724	StartPractice	41324	n/a	n/a	11
203.6500000000000	0	n/a	122191	KeyDown	41324	4	Index	11
203.9900000000000	0	n/a	122395	KeyDown	41324	1	Little	11
204.3083333333333	0	n/a	122586	KeyDown	41324	3	Middle	11
204.6600000000000	0	n/a	122797	KeyDown	41324	2	Ring	11
205.0166666666667	0	n/a	123011	KeyDown	41324	4	Index	11
205.3166666666667	0	n/a	123191	KeyDown	41324	4	Index	11
205.6000000000000	0	n/a	123361	KeyDown	41324	1	Little	11
205.9650000000000	0	n/a	123580	KeyDown	41324	3	Middle	11
206.2383333333333	0	n/a	123744	KeyDown	41324	2	Ring	11
206.4950000000000	0	n/a	123898	KeyDown	41324	4	Index	11
206.8033333333333	0	n/a	124083	KeyDown	41324	4	Index	11
207.0500000000000	0	n/a	124231	KeyDown	41324	1	Little	11
207.3700000000000	0	n/a	124423	KeyDown	41324	3	Middle	11
207.7333333333333	0	n/a	124641	KeyDown	41324	2	Ring	11
208.0600000000000	0	n/a	124837	KeyDown	41324	4	Index	11
208.3333333333333	0	n/a	125001	KeyDown	41324	4	Index	11
208.5900000000000	0	n/a	125155	KeyDown	41324	1	Little	11
209.0233333333333	0	n/a	125415	KeyDown	41324	3	Middle	11
209.2583333333334	0	n/a	125556	KeyDown	41324	2	Ring	11
209.6883333333334	0	n/a	125814	KeyDown	41324	4	Index	11
209.9450000000000	0	n/a	125968	KeyDown	41324	4	Index	11
210.2083333333333	0	n/a	126126	KeyDown	41324	1	Little	11
210.6083333333333	0	n/a	126366	KeyDown	41324	3	Middle	11
210.8750000000000	0	n/a	126526	KeyDown	41324	2	Ring	11
211.1983333333334	0	n/a	126720	KeyDown	41324	4	Index	11
211.4650000000000	0	n/a	126880	KeyDown	41324	4	Index	11
211.7616666666667	0	n/a	127058	KeyDown	41324	1	Little	11
212.1816666666667	0	n/a	127310	KeyDown	41324	3	Middle	11
212.4583333333333	0	n/a	127476	KeyDown	41324	2	Ring	11
212.7150000000000	0	n/a	127630	KeyDown	41324	4	Index	11
212.9100000000000	0	n/a	127747	StopPractice	41324	n/a	n/a	11
212.9116666666667	0	n/a	127748	StartRest	XXXXX	n/a	n/a	11
222.9450000000000	0	n/a	133768	StopRest	XXXXX	n/a	n/a	11
222.9466666666667	0	UPPT001	133769	StartPractice	41324	n/a	n/a	12
223.6150000000000	0	n/a	134170	KeyDown	41324	4	Index	12
223.9500000000000	0	n/a	134371	KeyDown	41324	1	Little	12
224.2600000000000	0	n/a	134557	KeyDown	41324	3	Middle	12
224.6033333333334	0	n/a	134763	KeyDown	41324	2	Ring	12
224.8883333333333	0	n/a	134934	KeyDown	41324	4	Index	12
225.4300000000000	0	n/a	135259	KeyDown	41324	4	Index	12
225.6983333333334	0	n/a	135420	KeyDown	41324	1	Little	12
226.0900000000000	0	n/a	135655	KeyDown	41324	3	Middle	12
226.3816666666667	0	n/a	135830	KeyDown	41324	2	Ring	12
226.6633333333334	0	n/a	135999	KeyDown	41324	4	Index	12
226.9700000000000	0	n/a	136183	KeyDown	41324	4	Index	12
227.2466666666667	0	n/a	136349	KeyDown	41324	1	Little	12
227.5666666666667	0	n/a	136541	KeyDown	41324	3	Middle	12
227.9750000000000	0	n/a	136786	KeyDown	41324	2	Ring	12
228.4050000000000	0	n/a	137044	KeyDown	41324	4	Index	12
228.6733333333333	0	n/a	137205	KeyDown	41324	4	Index	12
228.9250000000000	0	n/a	137356	KeyDown	41324	1	Little	12
229.2450000000000	0	n/a	137548	KeyDown	41324	3	Middle	12
229.5316666666667	0	n/a	137720	KeyDown	41324	2	Ring	12
230.0116666666667	0	n/a	138008	KeyDown	41324	4	Index	12
230.5583333333333	0	n/a	138336	KeyDown	41324	4	Index	12
230.9800000000000	0	n/a	138589	KeyDown	41324	1	Little	12
231.4550000000000	0	n/a	138874	KeyDown	41324	3	Middle	12
231.7433333333333	0	n/a	139047	KeyDown	41324	2	Ring	12
232.1783333333333	0	n/a	139308	KeyDown	41324	4	Index	12
232.7600000000000	0	n/a	139657	KeyDown	41324	1	Little	12
232.9850000000000	0	n/a	139792	StopPractice	41324	n/a	n/a	12
232.9866666666667	0	n/a	139793	StartRest	XXXXX	n/a	n/a	12
243.0200000000000	0	n/a	145813	StopRest	XXXXX	n/a	n/a	12
243.0216666666667	0	UPPT001	145814	StartPractice	41324	n/a	n/a	13
243.6400000000000	0	n/a	146185	KeyDown	41324	4	Index	13
243.9733333333334	0	n/a	146385	KeyDown	41324	1	Little	13
244.3833333333334	0	n/a	146631	KeyDown	41324	3	Middle	13
244.6683333333334	0	n/a	146802	KeyDown	41324	2	Ring	13
244.9733333333334	0	n/a	146985	KeyDown	41324	4	Index	13
245.2783333333333	0	n/a	147168	KeyDown	41324	4	Index	13
245.6350000000000	0	n/a	147382	KeyDown	41324	1	Little	13
246.0100000000000	0	n/a	147607	KeyDown	41324	3	Middle	13
246.3266666666667	0	n/a	147797	KeyDown	41324	2	Ring	13
246.6333333333334	0	n/a	147981	KeyDown	41324	4	Index	13
246.9050000000000	0	n/a	148144	KeyDown	41324	4	Index	13
247.1850000000000	0	n/a	148312	KeyDown	41324	1	Little	13
247.5866666666667	0	n/a	148553	KeyDown	41324	3	Middle	13
247.9050000000000	0	n/a	148744	KeyDown	41324	2	Ring	13
248.1600000000000	0	n/a	148897	KeyDown	41324	4	Index	13
248.4433333333334	0	n/a	149067	KeyDown	41324	4	Index	13
248.7700000000000	0	n/a	149263	KeyDown	41324	1	Little	13
249.2566666666667	0	n/a	149555	KeyDown	41324	3	Middle	13
249.5550000000000	0	n/a	149734	KeyDown	41324	2	Ring	13
249.8183333333334	0	n/a	149892	KeyDown	41324	4	Index	13
250.0716666666667	0	n/a	150044	KeyDown	41324	4	Index	13
250.3333333333333	0	n/a	150201	KeyDown	41324	1	Little	13
250.7983333333333	0	n/a	150480	KeyDown	41324	3	Middle	13
251.1933333333334	0	n/a	150717	KeyDown	41324	2	Ring	13
251.4816666666667	0	n/a	150890	KeyDown	41324	4	Index	13
251.7850000000000	0	n/a	151072	KeyDown	41324	4	Index	13
252.0983333333334	0	n/a	151260	KeyDown	41324	1	Little	13
252.5033333333334	0	n/a	151503	KeyDown	41324	3	Middle	13
252.8516666666667	0	n/a	151712	KeyDown	41324	2	Ring	13
253.0600000000000	0	n/a	151837	StopPractice	41324	n/a	n/a	13
253.0616666666667	0	n/a	151838	StartRest	XXXXX	n/a	n/a	13
263.0950000000000	0	n/a	157858	StopRest	XXXXX	n/a	n/a	13
263.0966666666667	0	UPPT001	157859	StartPractice	41324	n/a	n/a	14
263.6166666666667	0	n/a	158171	KeyDown	41324	4	Index	14
263.9033333333334	0	n/a	158343	KeyDown	41324	1	Little	14
264.2566666666667	0	n/a	158555	KeyDown	41324	3	Middle	14
264.5666666666667	0	n/a	158741	KeyDown	41324	2	Ring	14
264.8366666666667	0	n/a	158903	KeyDown	41324	4	Index	14
265.1000000000000	0	n/a	159061	KeyDown	41324	4	Index	14
265.3716666666667	0	n/a	159224	KeyDown	41324	1	Little	14
265.6950000000000	0	n/a	159418	KeyDown	41324	3	Middle	14
265.9700000000000	0	n/a	159583	KeyDown	41324	2	Ring	14
266.3133333333333	0	n/a	159789	KeyDown	41324	4	Index	14
266.5883333333334	0	n/a	159954	KeyDown	41324	4	Index	14
266.9033333333334	0	n/a	160143	KeyDown	41324	1	Little	14
267.4650000000000	0	n/a	160480	KeyDown	41324	3	Middle	14
267.7716666666667	0	n/a	160664	KeyDown	41324	2	Ring	14
268.0633333333333	0	n/a	160839	KeyDown	41324	4	Index	14
268.3966666666667	0	n/a	161039	KeyDown	41324	4	Index	14
268.6716666666667	0	n/a	161204	KeyDown	41324	1	Little	14
269.0800000000000	0	n/a	161449	KeyDown	41324	3	Middle	14
269.3616666666667	0	n/a	161618	KeyDown	41324	2	Ring	14
269.6550000000000	0	n/a	161794	KeyDown	41324	4	Index	14
269.9883333333333	0	n/a	161994	KeyDown	41324	4	Index	14
270.2983333333333	0	n/a	162180	KeyDown	41324	1	Little	14
270.8466666666667	0	n/a	162509	KeyDown	41324	3	Middle	14
271.0900000000000	0	n/a	162655	KeyDown	41324	2	Ring	14
271.4300000000000	0	n/a	162859	KeyDown	41324	4	Index	14
271.7600000000000	0	n/a	163057	KeyDown	41324	4	Index	14
272.0300000000000	0	n/a	163219	KeyDown	41324	1	Little	14
272.4300000000000	0	n/a	163459	KeyDown	41324	3	Middle	14
272.8583333333333	0	n/a	163716	KeyDown	41324	2	Ring	14
273.1350000000000	0	n/a	163882	StopPractice	41324	n/a	n/a	14
273.1366666666667	0	n/a	163883	StartRest	XXXXX	n/a	n/a	14
283.1866666666667	0	n/a	169913	StopRest	XXXXX	n/a	n/a	14
283.1883333333333	0	UPPT001	169914	StartPractice	41324	n/a	n/a	15
283.7500000000000	0	n/a	170251	KeyDown	41324	4	Index	15
284.0450000000000	0	n/a	170428	KeyDown	41324	1	Little	15
284.4516666666667	0	n/a	170672	KeyDown	41324	3	Middle	15
284.7300000000000	0	n/a	170839	KeyDown	41324	2	Ring	15
284.9966666666667	0	n/a	170999	KeyDown	41324	4	Index	15
285.2866666666667	0	n/a	171173	KeyDown	41324	4	Index	15
285.5416666666667	0	n/a	171326	KeyDown	41324	1	Little	15
285.9050000000000	0	n/a	171544	KeyDown	41324	3	Middle	15
286.1800000000000	0	n/a	171709	KeyDown	41324	2	Ring	15
286.4550000000000	0	n/a	171874	KeyDown	41324	4	Index	15
286.7383333333333	0	n/a	172044	KeyDown	41324	4	Index	15
287.0300000000000	0	n/a	172219	KeyDown	41324	1	Little	15
287.3983333333334	0	n/a	172440	KeyDown	41324	3	Middle	15
287.6916666666667	0	n/a	172616	KeyDown	41324	2	Ring	15
287.9350000000000	0	n/a	172762	KeyDown	41324	4	Index	15
288.2433333333333	0	n/a	172947	KeyDown	41324	4	Index	15
288.5366666666667	0	n/a	173123	KeyDown	41324	1	Little	15
289.0466666666667	0	n/a	173429	KeyDown	41324	3	Middle	15
289.2900000000000	0	n/a	173575	KeyDown	41324	2	Ring	15
289.6716666666667	0	n/a	173804	KeyDown	41324	4	Index	15
289.9516666666667	0	n/a	173972	KeyDown	41324	4	Index	15
290.2483333333333	0	n/a	174150	KeyDown	41324	1	Little	15
290.8950000000000	0	n/a	174538	KeyDown	41324	3	Middle	15
291.1550000000000	0	n/a	174694	KeyDown	41324	2	Ring	15
291.3883333333334	0	n/a	174834	KeyDown	41324	4	Index	15
291.7166666666667	0	n/a	175031	KeyDown	41324	4	Index	15
291.9850000000000	0	n/a	175192	KeyDown	41324	1	Little	15
292.7500000000000	0	n/a	175651	KeyDown	41324	3	Middle	15
292.8700000000000	0	n/a	175723	KeyDown	41324	3	Middle	15
293.2266666666667	0	n/a	175937	StopPractice	41324	n/a	n/a	15
293.2283333333334	0	n/a	175938	StartRest	XXXXX	n/a	n/a	15
303.2616666666667	0	n/a	181958	StopRest	XXXXX	n/a	n/a	15
303.2633333333334	0	UPPT001	181959	StartPractice	41324	n/a	n/a	16
303.8250000000000	0	n/a	182296	KeyDown	41324	4	Index	16
304.1483333333334	0	n/a	182490	KeyDown	41324	1	Little	16
304.5950000000000	0	n/a	182758	KeyDown	41324	3	Middle	16
304.8850000000000	0	n/a	182932	KeyDown	41324	2	Ring	16
305.1700000000000	0	n/a	183103	KeyDown	41324	4	Index	16
305.4616666666667	0	n/a	183278	KeyDown	41324	4	Index	16
305.7466666666667	0	n/a	183449	KeyDown	41324	1	Little	16
306.1066666666667	0	n/a	183665	KeyDown	41324	3	Middle	16
306.4000000000000	0	n/a	183841	KeyDown	41324	2	Ring	16
306.6750000000000	0	n/a	184006	KeyDown	41324	4	Index	16
306.9383333333333	0	n/a	184164	KeyDown	41324	4	Index	16
307.1900000000000	0	n/a	184315	KeyDown	41324	1	Little	16
307.5966666666667	0	n/a	184559	KeyDown	41324	3	Middle	16
307.9116666666667	0	n/a	184748	KeyDown	41324	2	Ring	16
308.5200000000000	0	n/a	185113	KeyDown	41324	4	Index	16
308.8050000000000	0	n/a	185284	KeyDown	41324	4	Index	16
309.0400000000000	0	n/a	185425	KeyDown	41324	1	Little	16
309.5400000000000	0	n/a	185725	KeyDown	41324	3	Middle	16
309.8500000000000	0	n/a	185911	KeyDown	41324	2	Ring	16
310.2950000000000	0	n/a	186178	KeyDown	41324	4	Index	16
310.5566666666667	0	n/a	186335	KeyDown	41324	4	Index	16
310.8216666666667	0	n/a	186494	KeyDown	41324	1	Little	16
311.2150000000000	0	n/a	186730	KeyDown	41324	3	Middle	16
311.5250000000000	0	n/a	186916	KeyDown	41324	2	Ring	16
311.7983333333333	0	n/a	187080	KeyDown	41324	4	Index	16
312.1716666666667	0	n/a	187304	KeyDown	41324	4	Index	16
312.3983333333334	0	n/a	187440	KeyDown	41324	1	Little	16
312.7050000000000	0	n/a	187624	KeyDown	41324	3	Middle	16
313.0566666666667	0	n/a	187835	KeyDown	41324	2	Ring	16
313.3016666666667	0	n/a	187982	StopPractice	41324	n/a	n/a	16
313.3033333333333	0	n/a	187983	StartRest	XXXXX	n/a	n/a	16
323.3366666666667	0	n/a	194003	StopRest	XXXXX	n/a	n/a	16
323.3383333333334	0	UPPT001	194004	StartPractice	41324	n/a	n/a	17
323.9233333333333	0	n/a	194355	KeyDown	41324	4	Index	17
324.2150000000000	0	n/a	194530	KeyDown	41324	1	Little	17
324.5516666666667	0	n/a	194732	KeyDown	41324	3	Middle	17
324.8733333333333	0	n/a	194925	KeyDown	41324	2	Ring	17
325.2383333333333	0	n/a	195144	KeyDown	41324	4	Index	17
325.5150000000000	0	n/a	195310	KeyDown	41324	4	Index	17
325.8050000000000	0	n/a	195484	KeyDown	41324	1	Little	17
326.4000000000000	0	n/a	195841	KeyDown	41324	3	Middle	17
326.7066666666667	0	n/a	196025	KeyDown	41324	2	Ring	17
327.0366666666667	0	n/a	196223	KeyDown	41324	4	Index	17
327.3083333333333	0	n/a	196386	KeyDown	41324	4	Index	17
327.5850000000000	0	n/a	196552	KeyDown	41324	1	Little	17
327.9300000000000	0	n/a	196759	KeyDown	41324	3	Middle	17
328.2033333333334	0	n/a	196923	KeyDown	41324	2	Ring	17
328.6216666666667	0	n/a	197174	KeyDown	41324	4	Index	17
328.9000000000000	0	n/a	197341	KeyDown	41324	4	Index	17
329.1583333333334	0	n/a	197496	KeyDown	41324	1	Little	17
329.7050000000000	0	n/a	197824	KeyDown	41324	3	Middle	17
329.9566666666667	0	n/a	197975	KeyDown	41324	2	Ring	17
330.2933333333334	0	n/a	198177	KeyDown	41324	4	Index	17
330.6483333333334	0	n/a	198390	KeyDown	41324	4	Index	17
330.9116666666667	0	n/a	198548	KeyDown	41324	1	Little	17
331.3700000000000	0	n/a	198823	KeyDown	41324	3	Middle	17
331.6933333333333	0	n/a	199017	KeyDown	41324	2	Ring	17
332.0516666666667	0	n/a	199232	KeyDown	41324	4	Index	17
332.4133333333334	0	n/a	199449	KeyDown	41324	4	Index	17
332.9100000000000	0	n/a	199747	KeyDown	41324	1	Little	17
333.3766666666667	0	n/a	200027	StopPractice	41324	n/a	n/a	17
333.3783333333333	0	n/a	200028	StartRest	XXXXX	n/a	n/a	17
343.4300000000000	0	n/a	206059	StopRest	XXXXX	n/a	n/a	17
343.4316666666667	0	UPPT001	206060	StartPractice	41324	n/a	n/a	18
343.9150000000000	0	n/a	206350	KeyDown	41324	4	Index	18
344.2083333333334	0	n/a	206526	KeyDown	41324	1	Little	18
344.5183333333334	0	n/a	206712	KeyDown	41324	3	Middle	18
344.8083333333333	0	n/a	206886	KeyDown	41324	2	Ring	18
345.1250000000000	0	n/a	207076	KeyDown	41324	4	Index	18
345.3966666666667	0	n/a	207239	KeyDown	41324	4	Index	18
345.6683333333334	0	n/a	207402	KeyDown	41324	1	Little	18
346.0366666666667	0	n/a	207623	KeyDown	41324	3	Middle	18
346.3083333333333	0	n/a	207786	KeyDown	41324	2	Ring	18
346.7266666666667	0	n/a	208037	KeyDown	41324	4	Index	18
347.0050000000000	0	n/a	208204	KeyDown	41324	4	Index	18
347.2433333333333	0	n/a	208347	KeyDown	41324	1	Little	18
347.7833333333334	0	n/a	208671	KeyDown	41324	3	Middle	18
348.0316666666667	0	n/a	208820	KeyDown	41324	2	Ring	18
348.3200000000001	0	n/a	208993	KeyDown	41324	4	Index	18
348.6366666666667	0	n/a	209183	KeyDown	41324	4	Index	18
349.2200000000000	0	n/a	209533	KeyDown	41324	1	Little	18
349.9450000000001	0	n/a	209968	KeyDown	41324	3	Middle	18
350.2100000000000	0	n/a	210127	KeyDown	41324	2	Ring	18
350.4833333333333	0	n/a	210291	KeyDown	41324	4	Index	18
350.7250000000000	0	n/a	210436	KeyDown	41324	4	Index	18
350.9800000000000	0	n/a	210589	KeyDown	41324	1	Little	18
351.4083333333334	0	n/a	210846	KeyDown	41324	3	Middle	18
351.6833333333333	0	n/a	211011	KeyDown	41324	2	Ring	18
351.9433333333333	0	n/a	211167	KeyDown	41324	4	Index	18
352.2183333333334	0	n/a	211332	KeyDown	41324	4	Index	18
352.4616666666667	0	n/a	211478	KeyDown	41324	1	Little	18
352.8516666666667	0	n/a	211712	KeyDown	41324	3	Middle	18
353.0900000000000	0	n/a	211855	KeyDown	41324	2	Ring	18
353.3500000000000	0	n/a	212011	KeyDown	41324	4	Index	18
353.4700000000000	0	n/a	212083	StopPractice	41324	n/a	n/a	18
353.4716666666667	0	n/a	212084	StartRest	XXXXX	n/a	n/a	18
363.5016666666667	0	n/a	218102	StopRest	XXXXX	n/a	n/a	18
363.5033333333333	0	UPPT001	218103	StartPractice	41324	n/a	n/a	19
363.9433333333334	0	n/a	218367	KeyDown	41324	4	Index	19
364.2800000000000	0	n/a	218569	KeyDown	41324	1	Little	19
364.5450000000000	0	n/a	218728	KeyDown	41324	3	Middle	19
364.8150000000000	0	n/a	218890	KeyDown	41324	2	Ring	19
365.0783333333334	0	n/a	219048	KeyDown	41324	4	Index	19
365.3133333333333	0	n/a	219189	KeyDown	41324	4	Index	19
365.6016666666667	0	n/a	219362	KeyDown	41324	1	Little	19
365.9150000000000	0	n/a	219550	KeyDown	41324	3	Middle	19
366.1866666666667	0	n/a	219713	KeyDown	41324	2	Ring	19
366.4600000000000	0	n/a	219877	KeyDown	41324	4	Index	19
366.7466666666667	0	n/a	220049	KeyDown	41324	4	Index	19
366.9883333333333	0	n/a	220194	KeyDown	41324	1	Little	19
367.3050000000000	0	n/a	220384	KeyDown	41324	3	Middle	19
367.6000000000000	0	n/a	220561	KeyDown	41324	2	Ring	19
367.9933333333333	0	n/a	220797	KeyDown	41324	4	Index	19
368.2650000000000	0	n/a	220960	KeyDown	41324	4	Index	19
368.4883333333333	0	n/a	221094	KeyDown	41324	1	Little	19
368.9266666666667	0	n/a	221357	KeyDown	41324	3	Middle	19
369.2016666666667	0	n/a	221522	KeyDown	41324	2	Ring	19
369.4816666666667	0	n/a	221690	KeyDown	41324	4	Index	19
369.6666666666667	0	n/a	221801	KeyDown	41324	4	Index	19
370.0566666666667	0	n/a	222035	KeyDown	41324	1	Little	19
370.5816666666667	0	n/a	222350	KeyDown	41324	3	Middle	19
370.8800000000000	0	n/a	222529	KeyDown	41324	2	Ring	19
371.1933333333334	0	n/a	222717	KeyDown	41324	4	Index	19
371.8116666666667	0	n/a	223088	KeyDown	41324	4	Index	19
372.0816666666667	0	n/a	223250	KeyDown	41324	1	Little	19
372.5900000000000	0	n/a	223555	KeyDown	41324	3	Middle	19
372.7983333333333	0	n/a	223680	KeyDown	41324	2	Ring	19
373.0550000000000	0	n/a	223834	KeyDown	41324	4	Index	19
373.3250000000000	0	n/a	223996	KeyDown	41324	4	Index	19
373.5416666666667	0	n/a	224126	StopPractice	41324	n/a	n/a	19
373.5433333333334	0	n/a	224127	StartRest	XXXXX	n/a	n/a	19
383.5783333333334	0	n/a	230148	StopRest	XXXXX	n/a	n/a	19
383.5800000000000	0	UPPT001	230149	StartPractice	41324	n/a	n/a	20
384.0216666666667	0	n/a	230414	KeyDown	41324	4	Index	20
384.3216666666667	0	n/a	230594	KeyDown	41324	1	Little	20
384.6050000000000	0	n/a	230764	KeyDown	41324	3	Middle	20
384.8683333333333	0	n/a	230922	KeyDown	41324	2	Ring	20
385.1216666666667	0	n/a	231074	KeyDown	41324	4	Index	20
385.3533333333334	0	n/a	231213	KeyDown	41324	4	Index	20
385.6033333333334	0	n/a	231363	KeyDown	41324	1	Little	20
385.8883333333334	0	n/a	231534	KeyDown	41324	3	Middle	20
386.1683333333334	0	n/a	231702	KeyDown	41324	2	Ring	20
386.4766666666667	0	n/a	231887	KeyDown	41324	4	Index	20
386.7566666666667	0	n/a	232055	KeyDown	41324	4	Index	20
387.0083333333334	0	n/a	232206	KeyDown	41324	1	Little	20
387.3466666666667	0	n/a	232409	KeyDown	41324	3	Middle	20
387.6333333333334	0	n/a	232581	KeyDown	41324	2	Ring	20
387.8900000000000	0	n/a	232735	KeyDown	41324	4	Index	20
388.3450000000000	0	n/a	233008	KeyDown	41324	4	Index	20
388.6033333333334	0	n/a	233163	KeyDown	41324	1	Little	20
389.0616666666667	0	n/a	233438	KeyDown	41324	3	Middle	20
389.3066666666667	0	n/a	233585	KeyDown	41324	2	Ring	20
389.5633333333333	0	n/a	233739	KeyDown	41324	4	Index	20
389.8150000000000	0	n/a	233890	KeyDown	41324	4	Index	20
390.0400000000000	0	n/a	234025	KeyDown	41324	1	Little	20
390.4083333333334	0	n/a	234246	KeyDown	41324	3	Middle	20
390.6716666666667	0	n/a	234404	KeyDown	41324	2	Ring	20
390.9300000000000	0	n/a	234559	KeyDown	41324	4	Index	20
391.2116666666667	0	n/a	234728	KeyDown	41324	4	Index	20
391.4450000000001	0	n/a	234868	KeyDown	41324	1	Little	20
391.7550000000001	0	n/a	235054	KeyDown	41324	3	Middle	20
392.0500000000000	0	n/a	235231	KeyDown	41324	2	Ring	20
392.3583333333333	0	n/a	235416	KeyDown	41324	4	Index	20
392.6333333333334	0	n/a	235581	KeyDown	41324	4	Index	20
392.8866666666667	0	n/a	235733	KeyDown	41324	1	Little	20
393.2083333333334	0	n/a	235926	KeyDown	41324	3	Middle	20
393.5033333333333	0	n/a	236103	KeyDown	41324	2	Ring	20
393.6183333333333	0	n/a	236172	StopPractice	41324	n/a	n/a	20
393.6200000000000	0	n/a	236173	StartRest	XXXXX	n/a	n/a	20
403.6533333333334	0	n/a	242193	StopRest	XXXXX	n/a	n/a	20
403.6550000000000	0	UPPT001	242194	StartPractice	41324	n/a	n/a	21
404.0516666666667	0	n/a	242432	KeyDown	41324	4	Index	21
404.3766666666667	0	n/a	242627	KeyDown	41324	1	Little	21
404.6900000000000	0	n/a	242815	KeyDown	41324	3	Middle	21
404.9933333333333	0	n/a	242997	KeyDown	41324	2	Ring	21
405.2466666666667	0	n/a	243149	KeyDown	41324	4	Index	21
405.4883333333333	0	n/a	243294	KeyDown	41324	4	Index	21
405.7316666666667	0	n/a	243440	KeyDown	41324	1	Little	21
406.0283333333334	0	n/a	243618	KeyDown	41324	3	Middle	21
406.3483333333334	0	n/a	243810	KeyDown	41324	2	Ring	21
406.6100000000000	0	n/a	243967	KeyDown	41324	4	Index	21
406.8533333333334	0	n/a	244113	KeyDown	41324	4	Index	21
407.1850000000000	0	n/a	244312	KeyDown	41324	1	Little	21
407.5366666666667	0	n/a	244523	KeyDown	41324	3	Middle	21
407.8216666666667	0	n/a	244694	KeyDown	41324	2	Ring	21
408.1333333333334	0	n/a	244881	KeyDown	41324	4	Index	21
408.4283333333333	0	n/a	245058	KeyDown	41324	4	Index	21
408.6733333333333	0	n/a	245205	KeyDown	41324	1	Little	21
408.9933333333333	0	n/a	245397	KeyDown	41324	3	Middle	21
409.2533333333334	0	n/a	245553	KeyDown	41324	2	Ring	21
409.5433333333334	0	n/a	245727	KeyDown	41324	4	Index	21
409.8116666666667	0	n/a	245888	KeyDown	41324	4	Index	21
410.0966666666667	0	n/a	246059	KeyDown	41324	1	Little	21
410.3550000000000	0	n/a	246214	KeyDown	41324	3	Middle	21
410.6116666666667	0	n/a	246368	KeyDown	41324	2	Ring	21
410.8233333333334	0	n/a	246495	KeyDown	41324	4	Index	21
411.0766666666667	0	n/a	246647	KeyDown	41324	4	Index	21
411.3350000000000	0	n/a	246802	KeyDown	41324	1	Little	21
411.6833333333333	0	n/a	247011	KeyDown	41324	3	Middle	21
411.9566666666667	0	n/a	247175	KeyDown	41324	2	Ring	21
412.2000000000000	0	n/a	247321	KeyDown	41324	4	Index	21
412.4783333333334	0	n/a	247488	KeyDown	41324	4	Index	21
412.6733333333333	0	n/a	247605	KeyDown	41324	1	Little	21
412.9550000000000	0	n/a	247774	KeyDown	41324	3	Middle	21
413.2566666666667	0	n/a	247955	KeyDown	41324	2	Ring	21
413.5200000000000	0	n/a	248113	KeyDown	41324	4	Index	21
413.6933333333334	0	n/a	248217	StopPractice	41324	n/a	n/a	21
413.6950000000001	0	n/a	248218	StartRest	XXXXX	n/a	n/a	21
423.7266666666667	0	n/a	254237	StopRest	XXXXX	n/a	n/a	21
423.7283333333334	0	UPPT001	254238	StartPractice	41324	n/a	n/a	22
424.2150000000000	0	n/a	254530	KeyDown	41324	4	Index	22
424.4916666666667	0	n/a	254696	KeyDown	41324	1	Little	22
424.7816666666667	0	n/a	254870	KeyDown	41324	3	Middle	22
425.0466666666667	0	n/a	255029	KeyDown	41324	2	Ring	22
425.3166666666667	0	n/a	255191	KeyDown	41324	4	Index	22
425.5966666666667	0	n/a	255359	KeyDown	41324	4	Index	22
425.9500000000000	0	n/a	255571	KeyDown	41324	1	Little	22
426.2766666666667	0	n/a	255767	KeyDown	41324	3	Middle	22
426.5333333333334	0	n/a	255921	KeyDown	41324	2	Ring	22
426.7850000000000	0	n/a	256072	KeyDown	41324	4	Index	22
427.0266666666667	0	n/a	256217	KeyDown	41324	4	Index	22
427.2783333333334	0	n/a	256368	KeyDown	41324	1	Little	22
427.7966666666667	0	n/a	256679	KeyDown	41324	3	Middle	22
428.0500000000000	0	n/a	256831	KeyDown	41324	2	Ring	22
428.3016666666667	0	n/a	256982	KeyDown	41324	4	Index	22
428.5350000000000	0	n/a	257122	KeyDown	41324	4	Index	22
428.7900000000000	0	n/a	257275	KeyDown	41324	1	Little	22
429.3016666666667	0	n/a	257582	KeyDown	41324	3	Middle	22
429.5700000000001	0	n/a	257743	KeyDown	41324	2	Ring	22
429.8350000000000	0	n/a	257902	KeyDown	41324	4	Index	22
430.0766666666667	0	n/a	258047	KeyDown	41324	4	Index	22
430.3466666666667	0	n/a	258209	KeyDown	41324	1	Little	22
430.6816666666667	0	n/a	258410	KeyDown	41324	3	Middle	22
431.0666666666667	0	n/a	258641	KeyDown	41324	2	Ring	22
431.3483333333334	0	n/a	258810	KeyDown	41324	4	Index	22
431.6033333333334	0	n/a	258963	KeyDown	41324	4	Index	22
431.8433333333334	0	n/a	259107	KeyDown	41324	1	Little	22
432.3316666666667	0	n/a	259400	KeyDown	41324	3	Middle	22
432.6016666666667	0	n/a	259562	KeyDown	41324	2	Ring	22
432.8816666666667	0	n/a	259730	KeyDown	41324	4	Index	22
433.1550000000000	0	n/a	259894	KeyDown	41324	4	Index	22
433.4916666666667	0	n/a	260096	KeyDown	41324	1	Little	22
433.7666666666667	0	n/a	260261	StopPractice	41324	n/a	n/a	22
433.7683333333334	0	n/a	260262	StartRest	XXXXX	n/a	n/a	22
443.8016666666667	0	n/a	266282	StopRest	XXXXX	n/a	n/a	22
443.8033333333333	0	UPPT001	266283	StartPractice	41324	n/a	n/a	23
444.3333333333334	0	n/a	266601	KeyDown	41324	4	Index	23
444.6016666666667	0	n/a	266762	KeyDown	41324	1	Little	23
444.9150000000000	0	n/a	266950	KeyDown	41324	3	Middle	23
445.2316666666667	0	n/a	267140	KeyDown	41324	2	Ring	23
445.5016666666667	0	n/a	267302	KeyDown	41324	4	Index	23
445.7616666666667	0	n/a	267458	KeyDown	41324	4	Index	23
445.9916666666667	0	n/a	267596	KeyDown	41324	1	Little	23
446.3716666666667	0	n/a	267824	KeyDown	41324	3	Middle	23
446.6650000000000	0	n/a	268000	KeyDown	41324	2	Ring	23
446.9650000000000	0	n/a	268180	KeyDown	41324	4	Index	23
447.2316666666667	0	n/a	268340	KeyDown	41324	4	Index	23
447.4850000000000	0	n/a	268492	KeyDown	41324	1	Little	23
447.8650000000000	0	n/a	268720	KeyDown	41324	3	Middle	23
448.1950000000001	0	n/a	268918	KeyDown	41324	2	Ring	23
448.4850000000000	0	n/a	269092	KeyDown	41324	4	Index	23
448.7450000000000	0	n/a	269248	KeyDown	41324	4	Index	23
449.1883333333334	0	n/a	269514	KeyDown	41324	1	Little	23
450.1550000000000	0	n/a	270094	KeyDown	41324	3	Middle	23
450.5533333333333	0	n/a	270333	KeyDown	41324	2	Ring	23
450.8450000000000	0	n/a	270508	KeyDown	41324	4	Index	23
451.1166666666667	0	n/a	270671	KeyDown	41324	4	Index	23
451.3983333333334	0	n/a	270840	KeyDown	41324	1	Little	23
451.8550000000000	0	n/a	271114	KeyDown	41324	3	Middle	23
452.1016666666667	0	n/a	271262	KeyDown	41324	2	Ring	23
452.3600000000000	0	n/a	271417	KeyDown	41324	4	Index	23
452.6266666666667	0	n/a	271577	KeyDown	41324	4	Index	23
452.8766666666667	0	n/a	271727	KeyDown	41324	1	Little	23
453.6683333333334	0	n/a	272202	KeyDown	41324	3	Middle	23
453.8416666666667	0	n/a	272306	StopPractice	41324	n/a	n/a	23
453.8433333333334	0	n/a	272307	StartRest	XXXXX	n/a	n/a	23
463.8766666666667	0	n/a	278327	StopRest	XXXXX	n/a	n/a	23
463.8783333333334	0	UPPT001	278328	StartPractice	41324	n/a	n/a	24
464.5966666666667	0	n/a	278759	KeyDown	41324	4	Index	24
464.9200000000000	0	n/a	278953	KeyDown	41324	1	Little	24
465.2766666666667	0	n/a	279167	KeyDown	41324	3	Middle	24
465.5716666666667	0	n/a	279344	KeyDown	41324	2	Ring	24
465.8500000000000	0	n/a	279511	KeyDown	41324	4	Index	24
466.0816666666667	0	n/a	279650	KeyDown	41324	4	Index	24
466.3350000000000	0	n/a	279802	KeyDown	41324	1	Little	24
466.7216666666667	0	n/a	280034	KeyDown	41324	3	Middle	24
466.9966666666667	0	n/a	280199	KeyDown	41324	2	Ring	24
467.2766666666667	0	n/a	280367	KeyDown	41324	4	Index	24
467.5000000000001	0	n/a	280501	KeyDown	41324	4	Index	24
467.8266666666667	0	n/a	280697	KeyDown	41324	1	Little	24
468.1716666666667	0	n/a	280904	KeyDown	41324	3	Middle	24
468.4916666666667	0	n/a	281096	KeyDown	41324	2	Ring	24
468.7350000000000	0	n/a	281242	KeyDown	41324	4	Index	24
468.9850000000000	0	n/a	281392	KeyDown	41324	4	Index	24
469.2266666666667	0	n/a	281537	KeyDown	41324	1	Little	24
469.7833333333334	0	n/a	281871	KeyDown	41324	3	Middle	24
470.0216666666667	0	n/a	282014	KeyDown	41324	2	Ring	24
470.2700000000000	0	n/a	282163	KeyDown	41324	4	Index	24
470.5216666666667	0	n/a	282314	KeyDown	41324	4	Index	24
470.7750000000000	0	n/a	282466	KeyDown	41324	1	Little	24
471.4966666666667	0	n/a	282899	KeyDown	41324	3	Middle	24
471.7616666666667	0	n/a	283058	KeyDown	41324	2	Ring	24
472.0333333333334	0	n/a	283221	KeyDown	41324	4	Index	24
472.2300000000000	0	n/a	283339	KeyDown	41324	4	Index	24
472.4700000000000	0	n/a	283483	KeyDown	41324	1	Little	24
472.7616666666667	0	n/a	283658	KeyDown	41324	3	Middle	24
473.0000000000001	0	n/a	283801	KeyDown	41324	2	Ring	24
473.1950000000001	0	n/a	283918	KeyDown	41324	4	Index	24
473.6316666666667	0	n/a	284180	KeyDown	41324	4	Index	24
473.9166666666667	0	n/a	284351	StopPractice	41324	n/a	n/a	24
473.9183333333334	0	n/a	284352	StartRest	XXXXX	n/a	n/a	24
483.9516666666667	0	n/a	290372	StopRest	XXXXX	n/a	n/a	24
483.9533333333334	0	UPPT001	290373	StartPractice	41324	n/a	n/a	25
484.5050000000001	0	n/a	290704	KeyDown	41324	4	Index	25
484.7550000000001	0	n/a	290854	KeyDown	41324	1	Little	25
485.0516666666667	0	n/a	291032	KeyDown	41324	3	Middle	25
485.3400000000000	0	n/a	291205	KeyDown	41324	2	Ring	25
485.5750000000000	0	n/a	291346	KeyDown	41324	4	Index	25
485.7966666666667	0	n/a	291479	KeyDown	41324	4	Index	25
486.0366666666667	0	n/a	291623	KeyDown	41324	1	Little	25
486.2916666666667	0	n/a	291776	KeyDown	41324	3	Middle	25
486.5683333333334	0	n/a	291942	KeyDown	41324	2	Ring	25
486.8216666666667	0	n/a	292094	KeyDown	41324	4	Index	25
487.0716666666667	0	n/a	292244	KeyDown	41324	4	Index	25
487.2866666666667	0	n/a	292373	KeyDown	41324	1	Little	25
487.6283333333334	0	n/a	292578	KeyDown	41324	3	Middle	25
487.8916666666667	0	n/a	292736	KeyDown	41324	2	Ring	25
488.1400000000000	0	n/a	292885	KeyDown	41324	4	Index	25
488.4200000000000	0	n/a	293053	KeyDown	41324	4	Index	25
488.6316666666667	0	n/a	293180	KeyDown	41324	1	Little	25
488.9216666666667	0	n/a	293354	KeyDown	41324	3	Middle	25
489.2150000000000	0	n/a	293530	KeyDown	41324	2	Ring	25
489.5033333333334	0	n/a	293703	KeyDown	41324	4	Index	25
490.6400000000000	0	n/a	294385	KeyDown	41324	1	Little	25
491.2100000000000	0	n/a	294727	KeyDown	41324	3	Middle	25
491.4600000000000	0	n/a	294877	KeyDown	41324	2	Ring	25
491.7500000000001	0	n/a	295051	KeyDown	41324	4	Index	25
491.9550000000000	0	n/a	295174	KeyDown	41324	4	Index	25
492.1850000000001	0	n/a	295312	KeyDown	41324	1	Little	25
492.5100000000000	0	n/a	295507	KeyDown	41324	3	Middle	25
492.7716666666667	0	n/a	295664	KeyDown	41324	2	Ring	25
493.0466666666667	0	n/a	295829	KeyDown	41324	4	Index	25
493.3650000000000	0	n/a	296020	KeyDown	41324	4	Index	25
493.6466666666667	0	n/a	296189	KeyDown	41324	1	Little	25
493.9916666666667	0	n/a	296396	StopPractice	41324	n/a	n/a	25
493.9933333333333	0	n/a	296397	StartRest	XXXXX	n/a	n/a	25
504.0266666666667	0	n/a	302417	StopRest	XXXXX	n/a	n/a	25
504.0283333333334	0	UPPT001	302418	StartPractice	41324	n/a	n/a	26
504.4766666666667	0	n/a	302687	KeyDown	41324	4	Index	26
504.7516666666667	0	n/a	302852	KeyDown	41324	1	Little	26
505.0250000000000	0	n/a	303016	KeyDown	41324	3	Middle	26
505.2700000000000	0	n/a	303163	KeyDown	41324	2	Ring	26
505.5116666666667	0	n/a	303308	KeyDown	41324	4	Index	26
505.7333333333333	0	n/a	303441	KeyDown	41324	4	Index	26
505.9600000000000	0	n/a	303577	KeyDown	41324	1	Little	26
506.3016666666667	0	n/a	303782	KeyDown	41324	3	Middle	26
506.5300000000000	0	n/a	303919	KeyDown	41324	2	Ring	26
506.7700000000000	0	n/a	304063	KeyDown	41324	4	Index	26
507.0250000000000	0	n/a	304216	KeyDown	41324	4	Index	26
507.2500000000001	0	n/a	304351	KeyDown	41324	1	Little	26
507.6333333333334	0	n/a	304581	KeyDown	41324	3	Middle	26
507.8833333333334	0	n/a	304731	KeyDown	41324	2	Ring	26
508.1416666666667	0	n/a	304886	KeyDown	41324	4	Index	26
508.3816666666667	0	n/a	305030	KeyDown	41324	4	Index	26
508.6300000000001	0	n/a	305179	KeyDown	41324	1	Little	26
509.2200000000000	0	n/a	305533	KeyDown	41324	3	Middle	26
509.4600000000000	0	n/a	305677	KeyDown	41324	2	Ring	26
509.8800000000001	0	n/a	305929	KeyDown	41324	4	Index	26
510.4466666666667	0	n/a	306269	KeyDown	41324	1	Little	26
510.9266666666667	0	n/a	306557	KeyDown	41324	3	Middle	26
511.1983333333334	0	n/a	306720	KeyDown	41324	2	Ring	26
511.4366666666667	0	n/a	306863	KeyDown	41324	4	Index	26
511.7066666666667	0	n/a	307025	KeyDown	41324	4	Index	26
511.9300000000000	0	n/a	307159	KeyDown	41324	1	Little	26
512.3400000000000	0	n/a	307405	KeyDown	41324	3	Middle	26
512.5500000000001	0	n/a	307531	KeyDown	41324	2	Ring	26
512.8583333333333	0	n/a	307716	KeyDown	41324	4	Index	26
513.1416666666667	0	n/a	307886	KeyDown	41324	4	Index	26
513.4383333333334	0	n/a	308064	KeyDown	41324	1	Little	26
513.8383333333334	0	n/a	308304	KeyDown	41324	3	Middle	26
514.0300000000001	0	n/a	308419	KeyDown	41324	2	Ring	26
514.0666666666667	0	n/a	308441	StopPractice	41324	n/a	n/a	26
514.0683333333334	0	n/a	308442	StartRest	XXXXX	n/a	n/a	26
524.1016666666667	0	n/a	314462	StopRest	XXXXX	n/a	n/a	26
524.1033333333334	0	UPPT001	314463	StartPractice	41324	n/a	n/a	27
524.4800000000000	0	n/a	314689	KeyDown	41324	4	Index	27
524.7333333333333	0	n/a	314841	KeyDown	41324	1	Little	27
525.0166666666667	0	n/a	315011	KeyDown	41324	3	Middle	27
525.2766666666668	0	n/a	315167	KeyDown	41324	2	Ring	27
525.5533333333334	0	n/a	315333	KeyDown	41324	4	Index	27
525.7700000000000	0	n/a	315463	KeyDown	41324	4	Index	27
525.9900000000000	0	n/a	315595	KeyDown	41324	1	Little	27
526.4966666666667	0	n/a	315899	KeyDown	41324	3	Middle	27
526.7466666666667	0	n/a	316049	KeyDown	41324	2	Ring	27
527.0250000000000	0	n/a	316216	KeyDown	41324	4	Index	27
527.3216666666667	0	n/a	316394	KeyDown	41324	4	Index	27
527.7816666666668	0	n/a	316670	KeyDown	41324	1	Little	27
528.3716666666667	0	n/a	317024	KeyDown	41324	3	Middle	27
528.5850000000000	0	n/a	317152	KeyDown	41324	2	Ring	27
528.8533333333334	0	n/a	317313	KeyDown	41324	4	Index	27
529.0766666666667	0	n/a	317447	KeyDown	41324	4	Index	27
529.3416666666667	0	n/a	317606	KeyDown	41324	1	Little	27
529.7616666666667	0	n/a	317858	KeyDown	41324	2	Ring	27
530.0666666666667	0	n/a	318041	KeyDown	41324	3	Middle	27
530.5083333333333	0	n/a	318306	KeyDown	41324	4	Index	27
530.8633333333333	0	n/a	318519	KeyDown	41324	4	Index	27
531.0983333333334	0	n/a	318660	KeyDown	41324	1	Little	27
531.7683333333333	0	n/a	319062	KeyDown	41324	3	Middle	27
532.0600000000001	0	n/a	319237	KeyDown	41324	2	Ring	27
532.3783333333333	0	n/a	319428	KeyDown	41324	1	Little	27
532.6450000000000	0	n/a	319588	KeyDown	41324	4	Index	27
532.9166666666667	0	n/a	319751	KeyDown	41324	1	Little	27
533.6800000000001	0	n/a	320209	KeyDown	41324	3	Middle	27
533.9533333333334	0	n/a	320373	KeyDown	41324	2	Ring	27
534.1416666666667	0	n/a	320486	StopPractice	41324	n/a	n/a	27
534.1433333333333	0	n/a	320487	StartRest	XXXXX	n/a	n/a	27
544.1766666666667	0	n/a	326507	StopRest	XXXXX	n/a	n/a	27
544.1783333333334	0	UPPT001	326508	StartPractice	41324	n/a	n/a	28
544.6083333333333	0	n/a	326766	KeyDown	41324	4	Index	28
544.8683333333333	0	n/a	326922	KeyDown	41324	1	Little	28
545.1866666666667	0	n/a	327113	KeyDown	41324	3	Middle	28
545.5050000000000	0	n/a	327304	KeyDown	41324	2	Ring	28
545.7650000000000	0	n/a	327460	KeyDown	41324	4	Index	28
545.9933333333333	0	n/a	327597	KeyDown	41324	4	Index	28
546.2283333333334	0	n/a	327738	KeyDown	41324	1	Little	28
546.6050000000000	0	n/a	327964	KeyDown	41324	3	Middle	28
546.8516666666667	0	n/a	328112	KeyDown	41324	2	Ring	28
547.3333333333334	0	n/a	328401	KeyDown	41324	4	Index	28
547.6533333333334	0	n/a	328593	KeyDown	41324	4	Index	28
547.9750000000000	0	n/a	328786	KeyDown	41324	1	Little	28
548.6116666666667	0	n/a	329168	KeyDown	41324	3	Middle	28
548.9150000000001	0	n/a	329350	KeyDown	41324	2	Ring	28
549.2166666666667	0	n/a	329531	KeyDown	41324	4	Index	28
549.8700000000000	0	n/a	329923	KeyDown	41324	4	Index	28
550.4433333333334	0	n/a	330267	KeyDown	41324	1	Little	28
551.0650000000001	0	n/a	330640	KeyDown	41324	3	Middle	28
551.2766666666668	0	n/a	330767	KeyDown	41324	2	Ring	28
551.5750000000000	0	n/a	330946	KeyDown	41324	4	Index	28
551.8166666666667	0	n/a	331091	KeyDown	41324	4	Index	28
552.1683333333334	0	n/a	331302	KeyDown	41324	1	Little	28
552.6050000000000	0	n/a	331564	KeyDown	41324	3	Middle	28
552.9183333333334	0	n/a	331752	KeyDown	41324	2	Ring	28
553.2550000000000	0	n/a	331954	KeyDown	41324	4	Index	28
553.4750000000000	0	n/a	332086	KeyDown	41324	4	Index	28
553.9666666666667	0	n/a	332381	KeyDown	41324	1	Little	28
554.2166666666667	0	n/a	332531	StopPractice	41324	n/a	n/a	28
554.2183333333334	0	n/a	332532	StartRest	XXXXX	n/a	n/a	28
564.2683333333333	0	n/a	338562	StopRest	XXXXX	n/a	n/a	28
564.2700000000000	0	UPPT001	338563	StartPractice	41324	n/a	n/a	29
564.7233333333334	0	n/a	338835	KeyDown	41324	4	Index	29
565.0366666666667	0	n/a	339023	KeyDown	41324	1	Little	29
565.3316666666667	0	n/a	339200	KeyDown	41324	3	Middle	29
565.5666666666667	0	n/a	339341	KeyDown	41324	2	Ring	29
565.8083333333334	0	n/a	339486	KeyDown	41324	4	Index	29
566.0583333333334	0	n/a	339636	KeyDown	41324	4	Index	29
566.3283333333334	0	n/a	339798	KeyDown	41324	1	Little	29
566.6366666666667	0	n/a	339983	KeyDown	41324	3	Middle	29
566.8700000000000	0	n/a	340123	KeyDown	41324	2	Ring	29
567.1700000000001	0	n/a	340303	KeyDown	41324	4	Index	29
567.4933333333333	0	n/a	340497	KeyDown	41324	4	Index	29
567.7533333333333	0	n/a	340653	KeyDown	41324	1	Little	29
568.1350000000000	0	n/a	340882	KeyDown	41324	3	Middle	29
568.4566666666667	0	n/a	341075	KeyDown	41324	2	Ring	29
568.7466666666667	0	n/a	341249	KeyDown	41324	4	Index	29
568.9633333333334	0	n/a	341379	KeyDown	41324	4	Index	29
569.3400000000000	0	n/a	341605	KeyDown	41324	1	Little	29
569.7666666666667	0	n/a	341861	KeyDown	41324	3	Middle	29
570.0033333333333	0	n/a	342003	KeyDown	41324	2	Ring	29
570.3683333333333	0	n/a	342222	KeyDown	41324	4	Index	29
570.6450000000000	0	n/a	342388	KeyDown	41324	4	Index	29
570.9366666666667	0	n/a	342563	KeyDown	41324	1	Little	29
571.2850000000001	0	n/a	342772	KeyDown	41324	3	Middle	29
571.5466666666667	0	n/a	342929	KeyDown	41324	2	Ring	29
572.2116666666667	0	n/a	343328	KeyDown	41324	4	Index	29
572.5650000000001	0	n/a	343540	KeyDown	41324	4	Index	29
573.4900000000000	0	n/a	344095	KeyDown	41324	1	Little	29
574.3083333333334	0	n/a	344586	StopPractice	41324	n/a	n/a	29
574.3100000000001	0	n/a	344587	StartRest	XXXXX	n/a	n/a	29
584.3600000000000	0	n/a	350617	StopRest	XXXXX	n/a	n/a	29
584.3616666666667	0	UPPT001	350618	StartPractice	41324	n/a	n/a	30
584.8350000000000	0	n/a	350902	KeyDown	41324	4	Index	30
585.3750000000000	0	n/a	351226	KeyDown	41324	1	Little	30
585.7050000000000	0	n/a	351424	KeyDown	41324	3	Middle	30
585.9300000000001	0	n/a	351559	KeyDown	41324	2	Ring	30
586.2100000000000	0	n/a	351727	KeyDown	41324	4	Index	30
586.4216666666667	0	n/a	351854	KeyDown	41324	4	Index	30
586.7016666666667	0	n/a	352022	KeyDown	41324	1	Little	30
587.1516666666668	0	n/a	352292	KeyDown	41324	3	Middle	30
587.4750000000000	0	n/a	352486	KeyDown	41324	2	Ring	30
587.8733333333333	0	n/a	352725	KeyDown	41324	4	Index	30
588.1600000000001	0	n/a	352897	KeyDown	41324	4	Index	30
588.4466666666667	0	n/a	353069	KeyDown	41324	1	Little	30
588.9333333333334	0	n/a	353361	KeyDown	41324	3	Middle	30
589.1600000000001	0	n/a	353497	KeyDown	41324	2	Ring	30
589.5633333333334	0	n/a	353739	KeyDown	41324	4	Index	30
589.7800000000001	0	n/a	353869	KeyDown	41324	4	Index	30
590.2683333333333	0	n/a	354162	KeyDown	41324	1	Little	30
591.0450000000001	0	n/a	354628	KeyDown	41324	3	Middle	30
591.2716666666668	0	n/a	354764	KeyDown	41324	2	Ring	30
591.5316666666668	0	n/a	354920	KeyDown	41324	4	Index	30
591.7683333333333	0	n/a	355062	KeyDown	41324	4	Index	30
592.0600000000001	0	n/a	355237	KeyDown	41324	1	Little	30
592.3200000000001	0	n/a	355393	KeyDown	41324	3	Middle	30
592.5733333333334	0	n/a	355545	KeyDown	41324	2	Ring	30
592.8850000000000	0	n/a	355732	KeyDown	41324	4	Index	30
593.1350000000000	0	n/a	355882	KeyDown	41324	4	Index	30
593.5133333333333	0	n/a	356109	KeyDown	41324	1	Little	30
593.9550000000000	0	n/a	356374	KeyDown	41324	3	Middle	30
594.1500000000001	0	n/a	356491	KeyDown	41324	2	Ring	30
594.4000000000001	0	n/a	356641	StopPractice	41324	n/a	n/a	30
594.4016666666668	0	n/a	356642	StartRest	XXXXX	n/a	n/a	30
604.4516666666667	0	n/a	362672	StopRest	XXXXX	n/a	n/a	30
604.4533333333334	0	UPPT001	362673	StartPractice	41324	n/a	n/a	31
605.0200000000001	0	n/a	363013	KeyDown	41324	4	Index	31
605.3050000000001	0	n/a	363184	KeyDown	41324	1	Little	31
606.0100000000000	0	n/a	363607	KeyDown	41324	3	Middle	31
606.2750000000001	0	n/a	363766	KeyDown	41324	2	Ring	31
606.5550000000001	0	n/a	363934	KeyDown	41324	4	Index	31
606.7900000000001	0	n/a	364075	KeyDown	41324	4	Index	31
607.0533333333334	0	n/a	364233	KeyDown	41324	1	Little	31
607.7333333333333	0	n/a	364641	KeyDown	41324	3	Middle	31
607.9766666666667	0	n/a	364787	KeyDown	41324	2	Ring	31
608.2733333333334	0	n/a	364965	KeyDown	41324	4	Index	31
608.4866666666667	0	n/a	365093	KeyDown	41324	4	Index	31
608.7650000000000	0	n/a	365260	KeyDown	41324	1	Little	31
609.0750000000000	0	n/a	365446	KeyDown	41324	3	Middle	31
609.3166666666667	0	n/a	365591	KeyDown	41324	2	Ring	31
609.5966666666667	0	n/a	365759	KeyDown	41324	4	Index	31
609.8466666666667	0	n/a	365909	KeyDown	41324	4	Index	31
610.0750000000000	0	n/a	366046	KeyDown	41324	1	Little	31
611.0466666666667	0	n/a	366629	KeyDown	41324	3	Middle	31
611.3366666666667	0	n/a	366803	KeyDown	41324	2	Ring	31
611.6716666666667	0	n/a	367004	KeyDown	41324	4	Index	31
611.9300000000001	0	n/a	367159	KeyDown	41324	4	Index	31
612.1866666666667	0	n/a	367313	KeyDown	41324	1	Little	31
612.5700000000001	0	n/a	367543	KeyDown	41324	2	Ring	31
613.2016666666667	0	n/a	367922	KeyDown	41324	3	Middle	31
613.4133333333334	0	n/a	368049	KeyDown	41324	4	Index	31
613.6750000000001	0	n/a	368206	KeyDown	41324	4	Index	31
614.0966666666667	0	n/a	368459	KeyDown	41324	1	Little	31
614.4916666666667	0	n/a	368696	StopPractice	41324	n/a	n/a	31
614.4933333333333	0	n/a	368697	StartRest	XXXXX	n/a	n/a	31
624.5433333333334	0	n/a	374727	StopRest	XXXXX	n/a	n/a	31
624.5450000000001	0	UPPT001	374728	StartPractice	41324	n/a	n/a	32
624.9816666666667	0	n/a	374990	KeyDown	41324	4	Index	32
625.3050000000001	0	n/a	375184	KeyDown	41324	1	Little	32
625.6383333333333	0	n/a	375384	KeyDown	41324	3	Middle	32
625.9566666666667	0	n/a	375575	KeyDown	41324	2	Ring	32
626.2216666666667	0	n/a	375734	KeyDown	41324	4	Index	32
626.4666666666667	0	n/a	375881	KeyDown	41324	4	Index	32
626.7816666666668	0	n/a	376070	KeyDown	41324	1	Little	32
627.2800000000001	0	n/a	376369	KeyDown	41324	3	Middle	32
627.5083333333333	0	n/a	376506	KeyDown	41324	2	Ring	32
627.7466666666667	0	n/a	376649	KeyDown	41324	4	Index	32
627.9633333333334	0	n/a	376779	KeyDown	41324	4	Index	32
628.2266666666667	0	n/a	376937	KeyDown	41324	1	Little	32
628.6683333333334	0	n/a	377202	KeyDown	41324	3	Middle	32
628.8733333333333	0	n/a	377325	KeyDown	41324	2	Ring	32
629.1033333333334	0	n/a	377463	KeyDown	41324	4	Index	32
629.3183333333334	0	n/a	377592	KeyDown	41324	4	Index	32
629.7816666666668	0	n/a	377870	KeyDown	41324	1	Little	32
630.4716666666667	0	n/a	378284	KeyDown	41324	3	Middle	32
630.6733333333334	0	n/a	378405	KeyDown	41324	2	Ring	32
630.9183333333334	0	n/a	378552	KeyDown	41324	4	Index	32
631.1616666666667	0	n/a	378698	KeyDown	41324	4	Index	32
631.3866666666667	0	n/a	378833	KeyDown	41324	1	Little	32
631.7800000000001	0	n/a	379069	KeyDown	41324	3	Middle	32
631.9616666666667	0	n/a	379178	KeyDown	41324	2	Ring	32
632.2300000000000	0	n/a	379339	KeyDown	41324	4	Index	32
632.7800000000001	0	n/a	379669	KeyDown	41324	4	Index	32
632.9916666666667	0	n/a	379796	KeyDown	41324	1	Little	32
633.3050000000001	0	n/a	379984	KeyDown	41324	3	Middle	32
633.6183333333333	0	n/a	380172	KeyDown	41324	2	Ring	32
633.8933333333334	0	n/a	380337	KeyDown	41324	4	Index	32
634.4116666666667	0	n/a	380648	KeyDown	41324	4	Index	32
634.5833333333334	0	n/a	380751	StopPractice	41324	n/a	n/a	32
634.5850000000000	0	n/a	380752	StartRest	XXXXX	n/a	n/a	32
644.6350000000000	0	n/a	386782	StopRest	XXXXX	n/a	n/a	32
644.6366666666667	0	UPPT001	386783	StartPractice	41324	n/a	n/a	33
645.1900000000001	0	n/a	387115	KeyDown	41324	4	Index	33
645.4650000000000	0	n/a	387280	KeyDown	41324	1	Little	33
645.9400000000001	0	n/a	387565	KeyDown	41324	3	Middle	33
646.1700000000001	0	n/a	387703	KeyDown	41324	2	Ring	33
646.4400000000001	0	n/a	387865	KeyDown	41324	4	Index	33
646.6416666666667	0	n/a	387986	KeyDown	41324	4	Index	33
646.8950000000001	0	n/a	388138	KeyDown	41324	1	Little	33
647.1600000000001	0	n/a	388297	KeyDown	41324	3	Middle	33
647.3916666666667	0	n/a	388436	KeyDown	41324	2	Ring	33
647.6600000000001	0	n/a	388597	KeyDown	41324	4	Index	33
647.9350000000001	0	n/a	388762	KeyDown	41324	4	Index	33
648.2466666666667	0	n/a	388949	KeyDown	41324	1	Little	33
648.7350000000000	0	n/a	389242	KeyDown	41324	3	Middle	33
648.9550000000000	0	n/a	389374	KeyDown	41324	2	Ring	33
649.2416666666667	0	n/a	389546	KeyDown	41324	4	Index	33
649.4733333333334	0	n/a	389685	KeyDown	41324	4	Index	33
649.7516666666667	0	n/a	389852	KeyDown	41324	1	Little	33
650.2716666666668	0	n/a	390164	KeyDown	41324	3	Middle	33
650.4850000000000	0	n/a	390292	KeyDown	41324	2	Ring	33
650.7433333333333	0	n/a	390447	KeyDown	41324	4	Index	33
650.9883333333333	0	n/a	390594	KeyDown	41324	4	Index	33
651.4050000000001	0	n/a	390844	KeyDown	41324	1	Little	33
651.9116666666667	0	n/a	391148	KeyDown	41324	3	Middle	33
652.0916666666667	0	n/a	391256	KeyDown	41324	2	Ring	33
652.3150000000001	0	n/a	391390	KeyDown	41324	4	Index	33
652.5233333333334	0	n/a	391515	KeyDown	41324	4	Index	33
652.8083333333334	0	n/a	391686	KeyDown	41324	1	Little	33
653.1433333333334	0	n/a	391887	KeyDown	41324	3	Middle	33
653.3500000000000	0	n/a	392011	KeyDown	41324	2	Ring	33
653.5933333333334	0	n/a	392157	KeyDown	41324	4	Index	33
653.8300000000000	0	n/a	392299	KeyDown	41324	4	Index	33
654.1633333333334	0	n/a	392499	KeyDown	41324	1	Little	33
654.6050000000000	0	n/a	392764	KeyDown	41324	3	Middle	33
654.6750000000001	0	n/a	392806	StopPractice	41324	n/a	n/a	33
654.6766666666667	0	n/a	392807	StartRest	XXXXX	n/a	n/a	33
664.7266666666667	0	n/a	398837	StopRest	XXXXX	n/a	n/a	33
664.7283333333334	0	UPPT001	398838	StartPractice	41324	n/a	n/a	34
665.3866666666667	0	n/a	399233	KeyDown	41324	4	Index	34
665.7600000000000	0	n/a	399457	KeyDown	41324	1	Little	34
666.1116666666667	0	n/a	399668	KeyDown	41324	3	Middle	34
666.3100000000001	0	n/a	399787	KeyDown	41324	2	Ring	34
666.5500000000001	0	n/a	399931	KeyDown	41324	4	Index	34
666.7400000000000	0	n/a	400045	KeyDown	41324	4	Index	34
666.9766666666667	0	n/a	400187	KeyDown	41324	1	Little	34
667.4750000000000	0	n/a	400486	KeyDown	41324	3	Middle	34
667.7400000000000	0	n/a	400645	KeyDown	41324	2	Ring	34
667.9550000000000	0	n/a	400774	KeyDown	41324	4	Index	34
668.1700000000001	0	n/a	400903	KeyDown	41324	4	Index	34
668.4316666666667	0	n/a	401060	KeyDown	41324	1	Little	34
668.9100000000001	0	n/a	401347	KeyDown	41324	3	Middle	34
669.1150000000000	0	n/a	401470	KeyDown	41324	2	Ring	34
669.3766666666667	0	n/a	401627	KeyDown	41324	4	Index	34
669.6083333333333	0	n/a	401766	KeyDown	41324	4	Index	34
669.9450000000001	0	n/a	401968	KeyDown	41324	1	Little	34
671.0600000000001	0	n/a	402637	KeyDown	41324	3	Middle	34
671.2500000000000	0	n/a	402751	KeyDown	41324	2	Ring	34
671.4916666666667	0	n/a	402896	KeyDown	41324	4	Index	34
671.7616666666667	0	n/a	403058	KeyDown	41324	4	Index	34
672.1833333333334	0	n/a	403311	KeyDown	41324	1	Little	34
672.5200000000001	0	n/a	403513	KeyDown	41324	3	Middle	34
672.7416666666667	0	n/a	403646	KeyDown	41324	2	Ring	34
673.0166666666668	0	n/a	403811	KeyDown	41324	4	Index	34
673.2366666666667	0	n/a	403943	KeyDown	41324	4	Index	34
673.5416666666667	0	n/a	404126	KeyDown	41324	1	Little	34
673.8766666666667	0	n/a	404327	KeyDown	41324	3	Middle	34
674.2150000000000	0	n/a	404530	KeyDown	41324	2	Ring	34
674.4850000000000	0	n/a	404692	KeyDown	41324	4	Index	34
674.7016666666667	0	n/a	404822	KeyDown	41324	4	Index	34
674.7666666666668	0	n/a	404861	StopPractice	41324	n/a	n/a	34
674.7683333333334	0	n/a	404862	StartRest	XXXXX	n/a	n/a	34
684.8183333333334	0	n/a	410892	StopRest	XXXXX	n/a	n/a	34
684.8200000000001	0	UPPT001	410893	StartPractice	41324	n/a	n/a	35
685.2416666666667	0	n/a	411146	KeyDown	41324	4	Index	35
685.5216666666668	0	n/a	411314	KeyDown	41324	1	Little	35
685.9516666666667	0	n/a	411572	KeyDown	41324	3	Middle	35
686.1733333333334	0	n/a	411705	KeyDown	41324	2	Ring	35
686.4116666666667	0	n/a	411848	KeyDown	41324	4	Index	35
686.6233333333333	0	n/a	411975	KeyDown	41324	4	Index	35
686.8183333333334	0	n/a	412092	KeyDown	41324	1	Little	35
687.2100000000000	0	n/a	412327	KeyDown	41324	3	Middle	35
687.4016666666668	0	n/a	412442	KeyDown	41324	2	Ring	35
687.6433333333334	0	n/a	412587	KeyDown	41324	4	Index	35
687.8533333333334	0	n/a	412713	KeyDown	41324	4	Index	35
688.1066666666667	0	n/a	412865	KeyDown	41324	1	Little	35
688.9566666666667	0	n/a	413375	KeyDown	41324	3	Middle	35
689.2350000000000	0	n/a	413542	KeyDown	41324	2	Ring	35
689.7783333333334	0	n/a	413868	KeyDown	41324	4	Index	35
690.0483333333334	0	n/a	414030	KeyDown	41324	4	Index	35
690.3166666666667	0	n/a	414191	KeyDown	41324	1	Little	35
690.7816666666668	0	n/a	414470	KeyDown	41324	3	Middle	35
691.1566666666668	0	n/a	414695	KeyDown	41324	2	Ring	35
691.4783333333334	0	n/a	414888	KeyDown	41324	4	Index	35
691.7766666666668	0	n/a	415067	KeyDown	41324	4	Index	35
692.0316666666668	0	n/a	415220	KeyDown	41324	1	Little	35
692.4750000000000	0	n/a	415486	KeyDown	41324	3	Middle	35
692.7033333333334	0	n/a	415623	KeyDown	41324	2	Ring	35
692.9100000000001	0	n/a	415747	KeyDown	41324	4	Index	35
693.1550000000001	0	n/a	415894	KeyDown	41324	4	Index	35
693.3900000000001	0	n/a	416035	KeyDown	41324	1	Little	35
693.8116666666667	0	n/a	416288	KeyDown	41324	3	Middle	35
693.9833333333333	0	n/a	416391	KeyDown	41324	2	Ring	35
694.1966666666667	0	n/a	416519	KeyDown	41324	4	Index	35
694.4433333333334	0	n/a	416667	KeyDown	41324	4	Index	35
694.7433333333333	0	n/a	416847	KeyDown	41324	1	Little	35
694.8583333333333	0	n/a	416916	StopPractice	41324	n/a	n/a	35
694.8600000000000	0	n/a	416917	StartRest	XXXXX	n/a	n/a	35
704.9083333333334	0	n/a	422946	StopRest	XXXXX	n/a	n/a	35
704.9100000000001	0	UPPT001	422947	StartPractice	41324	n/a	n/a	36
705.6966666666667	0	n/a	423419	KeyDown	41324	4	Index	36
705.8850000000000	0	n/a	423532	KeyDown	41324	1	Little	36
706.2283333333334	0	n/a	423738	KeyDown	41324	3	Middle	36
706.4066666666668	0	n/a	423845	KeyDown	41324	2	Ring	36
706.6533333333334	0	n/a	423993	KeyDown	41324	4	Index	36
706.8716666666667	0	n/a	424124	KeyDown	41324	4	Index	36
707.0833333333334	0	n/a	424251	KeyDown	41324	1	Little	36
707.5183333333334	0	n/a	424512	KeyDown	41324	3	Middle	36
707.7283333333334	0	n/a	424638	KeyDown	41324	2	Ring	36
707.9566666666667	0	n/a	424775	KeyDown	41324	4	Index	36
708.1800000000001	0	n/a	424909	KeyDown	41324	4	Index	36
708.7016666666667	0	n/a	425222	KeyDown	41324	1	Little	36
709.5066666666667	0	n/a	425705	KeyDown	41324	3	Middle	36
709.7016666666667	0	n/a	425822	KeyDown	41324	2	Ring	36
709.9083333333334	0	n/a	425946	KeyDown	41324	4	Index	36
710.1483333333334	0	n/a	426090	KeyDown	41324	4	Index	36
710.4016666666668	0	n/a	426242	KeyDown	41324	1	Little	36
710.6866666666667	0	n/a	426413	KeyDown	41324	2	Ring	36
710.9433333333334	0	n/a	426567	KeyDown	41324	3	Middle	36
711.2400000000000	0	n/a	426745	KeyDown	41324	4	Index	36
711.5133333333334	0	n/a	426909	KeyDown	41324	4	Index	36
712.3383333333334	0	n/a	427404	KeyDown	41324	1	Little	36
712.8683333333333	0	n/a	427722	KeyDown	41324	3	Middle	36
713.0666666666667	0	n/a	427841	KeyDown	41324	2	Ring	36
713.3350000000000	0	n/a	428002	KeyDown	41324	4	Index	36
713.5383333333334	0	n/a	428124	KeyDown	41324	4	Index	36
713.7566666666667	0	n/a	428255	KeyDown	41324	1	Little	36
714.1000000000000	0	n/a	428461	KeyDown	41324	3	Middle	36
714.2933333333334	0	n/a	428577	KeyDown	41324	2	Ring	36
714.4983333333333	0	n/a	428700	KeyDown	41324	4	Index	36
714.7316666666667	0	n/a	428840	KeyDown	41324	4	Index	36
714.9483333333334	0	n/a	428970	StopPractice	41324	n/a	n/a	36
714.9500000000000	0	n/a	428971	StartRest	XXXXX	n/a	n/a	36
724.9850000000000	0	n/a	434992	StopRest	XXXXX	n/a	n/a	36
