onset	duration	channel	onset_sample_idx	event_type	target_sequence	keypress_id	finger_label	trial_number
24.1950000000000	0	UPPT001	14518	StartPractice	41324	n/a	n/a	1
25.4683333333333	0	n/a	15282	KeyDown	41324	1	Little	1
26.1466666666667	0	n/a	15689	KeyDown	41324	4	Index	1
27.2433333333333	0	n/a	16347	KeyDown	41324	3	Middle	1
27.7433333333333	0	n/a	16647	KeyDown	41324	2	Ring	1
29.3216666666667	0	n/a	17594	KeyDown	41324	1	Little	1
29.7983333333333	0	n/a	17880	KeyDown	41324	4	Index	1
30.7850000000000	0	n/a	18472	KeyDown	41324	3	Middle	1
31.2183333333333	0	n/a	18732	KeyDown	41324	2	Ring	1
32.0750000000000	0	n/a	19246	KeyDown	41324	1	Little	1
32.5383333333333	0	n/a	19524	KeyDown	41324	4	Index	1
33.0533333333333	0	n/a	19833	KeyDown	41324	3	Middle	1
33.4900000000000	0	n/a	20095	KeyDown	41324	2	Ring	1
34.1433333333333	0	n/a	20487	KeyDown	41324	1	Little	1
34.2333333333333	0	n/a	20541	StopPractice	41324	n/a	n/a	1
34.2350000000000	0	n/a	20542	StartRest	XXXXX	n/a	n/a	1
44.2583333333333	0	n/a	26556	StopRest	XXXXX	n/a	n/a	1
44.2600000000000	0	UPPT001	26557	StartPractice	41324	n/a	n/a	2
45.1933333333333	0	n/a	27117	KeyDown	41324	4	Index	2
45.6500000000000	0	n/a	27391	KeyDown	41324	1	Little	2
46.2216666666667	0	n/a	27734	KeyDown	41324	3	Middle	2
46.5800000000000	0	n/a	27949	KeyDown	41324	2	Ring	2
46.9933333333333	0	n/a	28197	KeyDown	41324	1	Little	2
48.8466666666667	0	n/a	29309	KeyDown	41324	4	Index	2
49.2316666666667	0	n/a	29540	KeyDown	41324	1	Little	2
50.2683333333333	0	n/a	30162	KeyDown	41324	3	Middle	2
50.5966666666667	0	n/a	30359	KeyDown	41324	2	Ring	2
51.0566666666667	0	n/a	30635	KeyDown	41324	4	Index	2
51.5750000000000	0	n/a	30946	KeyDown	41324	1	Little	2
52.2233333333333	0	n/a	31335	KeyDown	41324	3	Middle	2
52.7550000000000	0	n/a	31654	KeyDown	41324	2	Ring	2
53.7766666666667	0	n/a	32267	KeyDown	41324	4	Index	2
54.2983333333333	0	n/a	32580	StopPractice	41324	n/a	n/a	2
54.3000000000000	0	n/a	32581	StartRest	XXXXX	n/a	n/a	2
64.3333333333333	0	n/a	38601	StopRest	XXXXX	n/a	n/a	2
64.3350000000000	0	UPPT001	38602	StartPractice	41324	n/a	n/a	3
65.2766666666667	0	n/a	39167	KeyDown	41324	4	Index	3
65.7416666666667	0	n/a	39446	KeyDown	41324	1	Little	3
66.2416666666667	0	n/a	39746	KeyDown	41324	3	Middle	3
66.6683333333333	0	n/a	40002	KeyDown	41324	2	Ring	3
67.1283333333333	0	n/a	40278	KeyDown	41324	1	Little	3
67.6083333333333	0	n/a	40566	KeyDown	41324	4	Index	3
69.0000000000000	0	n/a	41401	KeyDown	41324	3	Middle	3
69.5066666666667	0	n/a	41705	KeyDown	41324	2	Ring	3
70.3083333333333	0	n/a	42186	KeyDown	41324	4	Index	3
70.7466666666667	0	n/a	42449	KeyDown	41324	1	Little	3
71.2916666666667	0	n/a	42776	KeyDown	41324	3	Middle	3
71.7533333333333	0	n/a	43053	KeyDown	41324	2	Ring	3
72.5116666666667	0	n/a	43508	KeyDown	41324	4	Index	3
73.4566666666667	0	n/a	44075	KeyDown	41324	4	Index	3
74.1016666666667	0	n/a	44462	KeyDown	41324	1	Little	3
74.3733333333333	0	n/a	44625	StopPractice	41324	n/a	n/a	3
74.3750000000000	0	n/a	44626	StartRest	XXXXX	n/a	n/a	3
84.4083333333333	0	n/a	50646	StopRest	XXXXX	n/a	n/a	3
84.4100000000000	0	UPPT001	50647	StartPractice	41324	n/a	n/a	4
85.4083333333333	0	n/a	51246	KeyDown	41324	4	Index	4
85.8166666666667	0	n/a	51491	KeyDown	41324	1	Little	4
86.3533333333333	0	n/a	51813	KeyDown	41324	3	Middle	4
86.7450000000000	0	n/a	52048	KeyDown	41324	2	Ring	4
87.1033333333333	0	n/a	52263	KeyDown	41324	4	Index	4
87.5233333333333	0	n/a	52515	KeyDown	41324	4	Index	4
88.0383333333333	0	n/a	52824	KeyDown	41324	1	Little	4
88.5716666666667	0	n/a	53144	KeyDown	41324	3	Middle	4
88.9716666666667	0	n/a	53384	KeyDown	41324	2	Ring	4
90.1133333333333	0	n/a	54069	KeyDown	41324	4	Index	4
90.6200000000000	0	n/a	54373	KeyDown	41324	4	Index	4
91.5366666666667	0	n/a	54923	KeyDown	41324	4	Index	4
92.0866666666667	0	n/a	55253	KeyDown	41324	1	Little	4
93.0516666666667	0	n/a	55832	KeyDown	41324	3	Middle	4
93.6333333333333	0	n/a	56181	KeyDown	41324	2	Ring	4
94.3816666666667	0	n/a	56630	KeyDown	41324	4	Index	4
94.4483333333333	0	n/a	56670	StopPractice	41324	n/a	n/a	4
94.4500000000000	0	n/a	56671	StartRest	XXXXX	n/a	n/a	4
104.4833333333333	0	n/a	62691	StopRest	XXXXX	n/a	n/a	4
104.4850000000000	0	UPPT001	62692	StartPractice	41324	n/a	n/a	5
105.3466666666667	0	n/a	63209	KeyDown	41324	4	Index	5
105.8516666666667	0	n/a	63512	KeyDown	41324	1	Little	5
106.4583333333333	0	n/a	63876	KeyDown	41324	3	Middle	5
107.0000000000000	0	n/a	64201	KeyDown	41324	2	Ring	5
107.4116666666667	0	n/a	64448	KeyDown	41324	4	Index	5
107.8666666666667	0	n/a	64721	KeyDown	41324	4	Index	5
108.3633333333333	0	n/a	65019	KeyDown	41324	1	Little	5
108.8683333333333	0	n/a	65322	KeyDown	41324	3	Middle	5
109.2766666666667	0	n/a	65567	KeyDown	41324	2	Ring	5
109.6183333333333	0	n/a	65772	KeyDown	41324	4	Index	5
110.0583333333333	0	n/a	66036	KeyDown	41324	4	Index	5
110.8716666666667	0	n/a	66524	KeyDown	41324	1	Little	5
111.4533333333333	0	n/a	66873	KeyDown	41324	3	Middle	5
111.9383333333333	0	n/a	67164	KeyDown	41324	2	Ring	5
112.3533333333333	0	n/a	67413	KeyDown	41324	4	Index	5
112.7283333333333	0	n/a	67638	KeyDown	41324	4	Index	5
113.1800000000000	0	n/a	67909	KeyDown	41324	1	Little	5
113.6966666666667	0	n/a	68219	KeyDown	41324	3	Middle	5
114.2083333333333	0	n/a	68526	KeyDown	41324	2	Ring	5
114.5233333333333	0	n/a	68715	StopPractice	41324	n/a	n/a	5
114.5250000000000	0	n/a	68716	StartRest	XXXXX	n/a	n/a	5
124.5583333333333	0	n/a	74736	StopRest	XXXXX	n/a	n/a	5
124.5600000000000	0	UPPT001	74737	StartPractice	41324	n/a	n/a	6
125.1100000000000	0	n/a	75067	KeyDown	41324	4	Index	6
125.4633333333333	0	n/a	75279	KeyDown	41324	1	Little	6
125.8516666666667	0	n/a	75512	KeyDown	41324	3	Middle	6
126.1250000000000	0	n/a	75676	KeyDown	41324	2	Ring	6
126.5450000000000	0	n/a	75928	KeyDown	41324	4	Index	6
127.0550000000000	0	n/a	76234	KeyDown	41324	4	Index	6
127.4416666666667	0	n/a	76466	KeyDown	41324	1	Little	6
127.8800000000000	0	n/a	76729	KeyDown	41324	3	Middle	6
128.1983333333334	0	n/a	76920	KeyDown	41324	2	Ring	6
128.5800000000000	0	n/a	77149	KeyDown	41324	4	Index	6
129.2583333333334	0	n/a	77556	KeyDown	41324	4	Index	6
129.9283333333333	0	n/a	77958	KeyDown	41324	1	Little	6
130.8716666666667	0	n/a	78524	KeyDown	41324	3	Middle	6
131.3116666666667	0	n/a	78788	KeyDown	41324	2	Ring	6
131.7816666666667	0	n/a	79070	KeyDown	41324	4	Index	6
132.2033333333333	0	n/a	79323	KeyDown	41324	4	Index	6
132.8166666666667	0	n/a	79691	KeyDown	41324	1	Little	6
133.6333333333334	0	n/a	80181	KeyDown	41324	3	Middle	6
134.1350000000000	0	n/a	80482	KeyDown	41324	2	Ring	6
134.4733333333333	0	n/a	80685	KeyDown	41324	4	Index	6
134.5983333333333	0	n/a	80760	StopPractice	41324	n/a	n/a	6
134.6000000000000	0	n/a	80761	StartRest	XXXXX	n/a	n/a	6
144.6350000000000	0	n/a	86782	StopRest	XXXXX	n/a	n/a	6
144.6366666666667	0	UPPT001	86783	StartPractice	41324	n/a	n/a	7
145.2066666666667	0	n/a	87125	KeyDown	41324	4	Index	7
145.5833333333333	0	n/a	87351	KeyDown	41324	1	Little	7
146.0183333333333	0	n/a	87612	KeyDown	41324	3	Middle	7
146.3350000000000	0	n/a	87802	KeyDown	41324	2	Ring	7
146.6783333333333	0	n/a	88008	KeyDown	41324	4	Index	7
147.0383333333334	0	n/a	88224	KeyDown	41324	4	Index	7
147.4800000000000	0	n/a	88489	KeyDown	41324	1	Little	7
147.9333333333333	0	n/a	88761	KeyDown	41324	3	Middle	7
148.3150000000000	0	n/a	88990	KeyDown	41324	2	Ring	7
148.6083333333333	0	n/a	89166	KeyDown	41324	4	Index	7
148.9783333333334	0	n/a	89388	KeyDown	41324	4	Index	7
149.4783333333334	0	n/a	89688	KeyDown	41324	1	Little	7
150.4000000000000	0	n/a	90241	KeyDown	41324	3	Middle	7
150.7300000000000	0	n/a	90439	KeyDown	41324	2	Ring	7
151.0250000000000	0	n/a	90616	KeyDown	41324	4	Index	7
151.4050000000000	0	n/a	90844	KeyDown	41324	4	Index	7
151.8100000000000	0	n/a	91087	KeyDown	41324	1	Little	7
152.2233333333333	0	n/a	91335	KeyDown	41324	3	Middle	7
152.5200000000000	0	n/a	91513	KeyDown	41324	2	Ring	7
152.7983333333333	0	n/a	91680	KeyDown	41324	4	Index	7
153.2450000000000	0	n/a	91948	KeyDown	41324	4	Index	7
153.6483333333333	0	n/a	92190	KeyDown	41324	1	Little	7
154.1100000000000	0	n/a	92467	KeyDown	41324	3	Middle	7
154.4383333333333	0	n/a	92664	KeyDown	41324	2	Ring	7
154.6750000000000	0	n/a	92806	StopPractice	41324	n/a	n/a	7
154.6766666666667	0	n/a	92807	StartRest	XXXXX	n/a	n/a	7
164.7083333333333	0	n/a	98826	StopRest	XXXXX	n/a	n/a	7
164.7100000000000	0	UPPT001	98827	StartPractice	41324	n/a	n/a	8
165.1833333333333	0	n/a	99111	KeyDown	41324	4	Index	8
165.5166666666667	0	n/a	99311	KeyDown	41324	1	Little	8
165.9716666666667	0	n/a	99584	KeyDown	41324	3	Middle	8
166.3083333333333	0	n/a	99786	KeyDown	41324	2	Ring	8
166.6750000000000	0	n/a	100006	KeyDown	41324	4	Index	8
166.9900000000000	0	n/a	100195	KeyDown	41324	4	Index	8
167.5450000000000	0	n/a	100528	KeyDown	41324	1	Little	8
167.9250000000000	0	n/a	100756	KeyDown	41324	3	Middle	8
168.2133333333333	0	n/a	100929	KeyDown	41324	2	Ring	8
168.5050000000000	0	n/a	101104	KeyDown	41324	4	Index	8
168.9183333333334	0	n/a	101352	KeyDown	41324	4	Index	8
169.2983333333333	0	n/a	101580	KeyDown	41324	1	Little	8
169.6533333333333	0	n/a	101793	KeyDown	41324	3	Middle	8
169.9050000000000	0	n/a	101944	KeyDown	41324	2	Ring	8
170.1300000000000	0	n/a	102079	KeyDown	41324	4	Index	8
170.6850000000000	0	n/a	102412	KeyDown	41324	4	Index	8
171.4233333333333	0	n/a	102855	KeyDown	41324	1	Little	8
171.8583333333333	0	n/a	103116	KeyDown	41324	3	Middle	8
172.1516666666667	0	n/a	103292	KeyDown	41324	2	Ring	8
172.4316666666667	0	n/a	103460	KeyDown	41324	4	Index	8
172.7783333333333	0	n/a	103668	KeyDown	41324	4	Index	8
173.1966666666667	0	n/a	103919	KeyDown	41324	1	Little	8
173.6183333333333	0	n/a	104172	KeyDown	41324	3	Middle	8
173.8816666666667	0	n/a	104330	KeyDown	41324	2	Ring	8
174.1666666666667	0	n/a	104501	KeyDown	41324	4	Index	8
174.6266666666667	0	n/a	104777	KeyDown	41324	4	Index	8
174.7483333333333	0	n/a	104850	StopPractice	41324	n/a	n/a	8
174.7500000000000	0	n/a	104851	StartRest	XXXXX	n/a	n/a	8
184.7816666666667	0	n/a	110870	StopRest	XXXXX	n/a	n/a	8
184.7833333333333	0	UPPT001	110871	StartPractice	41324	n/a	n/a	9
185.2666666666667	0	n/a	111161	KeyDown	41324	4	Index	9
185.5900000000000	0	n/a	111355	KeyDown	41324	1	Little	9
185.9633333333333	0	n/a	111579	KeyDown	41324	3	Middle	9
186.3766666666667	0	n/a	111827	KeyDown	41324	2	Ring	9
186.7066666666667	0	n/a	112025	KeyDown	41324	4	Index	9
187.0566666666667	0	n/a	112235	KeyDown	41324	4	Index	9
187.4216666666667	0	n/a	112454	KeyDown	41324	1	Little	9
187.8250000000000	0	n/a	112696	KeyDown	41324	3	Middle	9
188.1766666666667	0	n/a	112907	KeyDown	41324	2	Ring	9
188.4350000000000	0	n/a	113062	KeyDown	41324	4	Index	9
188.8000000000000	0	n/a	113281	KeyDown	41324	4	Index	9
189.1283333333334	0	n/a	113478	KeyDown	41324	1	Little	9
189.5266666666667	0	n/a	113717	KeyDown	41324	3	Middle	9
189.8100000000000	0	n/a	113887	KeyDown	41324	2	Ring	9
190.0566666666667	0	n/a	114035	KeyDown	41324	4	Index	9
190.4716666666667	0	n/a	114284	KeyDown	41324	4	Index	9
190.8083333333333	0	n/a	114486	KeyDown	41324	1	Little	9
191.2400000000000	0	n/a	114745	KeyDown	41324	3	Middle	9
191.5216666666667	0	n/a	114914	KeyDown	41324	2	Ring	9
191.7983333333333	0	n/a	115080	KeyDown	41324	4	Index	9
192.2250000000000	0	n/a	115336	KeyDown	41324	4	Index	9
192.5766666666667	0	n/a	115547	KeyDown	41324	1	Little	9
193.0516666666667	0	n/a	115832	KeyDown	41324	3	Middle	9
193.3250000000000	0	n/a	115996	KeyDown	41324	2	Ring	9
193.6350000000000	0	n/a	116182	KeyDown	41324	4	Index	9
194.0450000000000	0	n/a	116428	KeyDown	41324	4	Index	9
194.4983333333333	0	n/a	116700	KeyDown	41324	2	Ring	9
194.8216666666667	0	n/a	116894	StopPractice	41324	n/a	n/a	9
194.8233333333334	0	n/a	116895	StartRest	XXXXX	n/a	n/a	9
204.8583333333333	0	n/a	122916	StopRest	XXXXX	n/a	n/a	9
204.8600000000000	0	UPPT001	122917	StartPractice	41324	n/a	n/a	10
205.4933333333333	0	n/a	123297	KeyDown	41324	4	Index	10
205.8416666666667	0	n/a	123506	KeyDown	41324	1	Little	10
206.2716666666667	0	n/a	123764	KeyDown	41324	3	Middle	10
206.5816666666667	0	n/a	123950	KeyDown	41324	2	Ring	10
206.9066666666667	0	n/a	124145	KeyDown	41324	4	Index	10
207.2783333333333	0	n/a	124368	KeyDown	41324	4	Index	10
207.6950000000000	0	n/a	124618	KeyDown	41324	1	Little	10
208.2033333333333	0	n/a	124923	KeyDown	41324	3	Middle	10
208.5516666666667	0	n/a	125132	KeyDown	41324	2	Ring	10
208.8933333333333	0	n/a	125337	KeyDown	41324	4	Index	10
209.2650000000000	0	n/a	125560	KeyDown	41324	4	Index	10
209.6166666666667	0	n/a	125771	KeyDown	41324	1	Little	10
210.0316666666667	0	n/a	126020	KeyDown	41324	3	Middle	10
210.3333333333333	0	n/a	126201	KeyDown	41324	2	Ring	10
210.6116666666667	0	n/a	126368	KeyDown	41324	4	Index	10
210.9783333333334	0	n/a	126588	KeyDown	41324	4	Index	10
211.4450000000000	0	n/a	126868	KeyDown	41324	1	Little	10
211.8266666666667	0	n/a	127097	KeyDown	41324	3	Middle	10
212.0816666666667	0	n/a	127250	KeyDown	41324	2	Ring	10
212.3866666666667	0	n/a	127433	KeyDown	41324	4	Index	10
212.7416666666667	0	n/a	127646	KeyDown	41324	4	Index	10
213.0433333333334	0	n/a	127827	KeyDown	41324	1	Little	10
213.4200000000000	0	n/a	128053	KeyDown	41324	3	Middle	10
213.6966666666667	0	n/a	128219	KeyDown	41324	2	Ring	10
213.9733333333334	0	n/a	128385	KeyDown	41324	4	Index	10
214.3516666666667	0	n/a	128612	KeyDown	41324	4	Index	10
214.6816666666667	0	n/a	128810	KeyDown	41324	1	Little	10
214.8983333333333	0	n/a	128940	StopPractice	41324	n/a	n/a	10
214.9000000000000	0	n/a	128941	StartRest	XXXXX	n/a	n/a	10
224.9333333333333	0	n/a	134961	StopRest	XXXXX	n/a	n/a	10
224.9350000000000	0	UPPT001	134962	StartPractice	41324	n/a	n/a	11
225.3766666666667	0	n/a	135227	KeyDown	41324	4	Index	11
225.6833333333333	0	n/a	135411	KeyDown	41324	1	Little	11
225.9966666666667	0	n/a	135599	KeyDown	41324	3	Middle	11
226.2633333333333	0	n/a	135759	KeyDown	41324	2	Ring	11
226.5300000000000	0	n/a	135919	KeyDown	41324	4	Index	11
226.8533333333334	0	n/a	136113	KeyDown	41324	4	Index	11
227.4100000000000	0	n/a	136447	KeyDown	41324	1	Little	11
227.7683333333333	0	n/a	136662	KeyDown	41324	3	Middle	11
228.0266666666667	0	n/a	136817	KeyDown	41324	2	Ring	11
228.2733333333333	0	n/a	136965	KeyDown	41324	4	Index	11
228.6200000000000	0	n/a	137173	KeyDown	41324	4	Index	11
229.0350000000000	0	n/a	137422	KeyDown	41324	1	Little	11
229.4233333333333	0	n/a	137655	KeyDown	41324	3	Middle	11
229.7283333333334	0	n/a	137838	KeyDown	41324	2	Ring	11
230.0033333333334	0	n/a	138003	KeyDown	41324	4	Index	11
230.3566666666667	0	n/a	138215	KeyDown	41324	4	Index	11
230.7466666666667	0	n/a	138449	KeyDown	41324	1	Little	11
231.2033333333333	0	n/a	138723	KeyDown	41324	3	Middle	11
231.5750000000000	0	n/a	138946	KeyDown	41324	2	Ring	11
232.0966666666667	0	n/a	139259	KeyDown	41324	4	Index	11
232.4700000000000	0	n/a	139483	KeyDown	41324	4	Index	11
232.8166666666667	0	n/a	139691	KeyDown	41324	1	Little	11
233.2500000000000	0	n/a	139951	KeyDown	41324	3	Middle	11
233.5333333333334	0	n/a	140121	KeyDown	41324	2	Ring	11
233.7966666666667	0	n/a	140279	KeyDown	41324	4	Index	11
234.2516666666667	0	n/a	140552	KeyDown	41324	4	Index	11
234.5566666666667	0	n/a	140735	KeyDown	41324	1	Little	11
234.9233333333333	0	n/a	140955	KeyDown	41324	3	Middle	11
234.9733333333334	0	n/a	140985	StopPractice	41324	n/a	n/a	11
234.9750000000000	0	n/a	140986	StartRest	XXXXX	n/a	n/a	11
245.0066666666667	0	n/a	147005	StopRest	XXXXX	n/a	n/a	11
245.0083333333334	0	UPPT001	147006	StartPractice	41324	n/a	n/a	12
245.4616666666667	0	n/a	147278	KeyDown	41324	4	Index	12
245.8133333333334	0	n/a	147489	KeyDown	41324	1	Little	12
246.1900000000000	0	n/a	147715	KeyDown	41324	3	Middle	12
246.3483333333334	0	n/a	147810	KeyDown	41324	2	Ring	12
246.6500000000000	0	n/a	147991	KeyDown	41324	4	Index	12
247.0583333333333	0	n/a	148236	KeyDown	41324	4	Index	12
247.3866666666667	0	n/a	148433	KeyDown	41324	1	Little	12
247.8000000000000	0	n/a	148681	KeyDown	41324	3	Middle	12
248.1233333333334	0	n/a	148875	KeyDown	41324	2	Ring	12
248.3483333333334	0	n/a	149010	KeyDown	41324	4	Index	12
248.7033333333333	0	n/a	149223	KeyDown	41324	4	Index	12
249.0283333333333	0	n/a	149418	KeyDown	41324	1	Little	12
249.3766666666667	0	n/a	149627	KeyDown	41324	3	Middle	12
249.6166666666667	0	n/a	149771	KeyDown	41324	2	Ring	12
249.9233333333333	0	n/a	149955	KeyDown	41324	4	Index	12
250.2716666666667	0	n/a	150164	KeyDown	41324	4	Index	12
250.6033333333334	0	n/a	150363	KeyDown	41324	1	Little	12
250.9516666666667	0	n/a	150572	KeyDown	41324	3	Middle	12
251.2200000000000	0	n/a	150733	KeyDown	41324	2	Ring	12
251.5066666666667	0	n/a	150905	KeyDown	41324	4	Index	12
251.8833333333334	0	n/a	151131	KeyDown	41324	4	Index	12
252.2583333333334	0	n/a	151356	KeyDown	41324	1	Little	12
252.7083333333333	0	n/a	151626	KeyDown	41324	3	Middle	12
252.9250000000000	0	n/a	151756	KeyDown	41324	2	Ring	12
253.2900000000000	0	n/a	151975	KeyDown	41324	4	Index	12
253.6766666666667	0	n/a	152207	KeyDown	41324	4	Index	12
254.0916666666667	0	n/a	152456	KeyDown	41324	1	Little	12
254.4116666666667	0	n/a	152648	KeyDown	41324	3	Middle	12
254.6100000000000	0	n/a	152767	KeyDown	41324	2	Ring	12
254.9083333333334	0	n/a	152946	KeyDown	41324	4	Index	12
255.0466666666667	0	n/a	153029	StopPractice	41324	n/a	n/a	12
255.0483333333333	0	n/a	153030	StartRest	XXXXX	n/a	n/a	12
265.0816666666667	0	n/a	159050	StopRest	XXXXX	n/a	n/a	12
265.0833333333334	0	UPPT001	159051	StartPractice	41324	n/a	n/a	13
265.5116666666667	0	n/a	159308	KeyDown	41324	4	Index	13
265.8066666666667	0	n/a	159485	KeyDown	41324	1	Little	13
266.2516666666667	0	n/a	159752	KeyDown	41324	3	Middle	13
266.5900000000000	0	n/a	159955	KeyDown	41324	2	Ring	13
266.9050000000000	0	n/a	160144	KeyDown	41324	4	Index	13
267.2200000000000	0	n/a	160333	KeyDown	41324	4	Index	13
267.5016666666667	0	n/a	160502	KeyDown	41324	1	Little	13
267.8966666666667	0	n/a	160739	KeyDown	41324	3	Middle	13
268.1300000000000	0	n/a	160879	KeyDown	41324	2	Ring	13
268.4000000000000	0	n/a	161041	KeyDown	41324	4	Index	13
268.7666666666667	0	n/a	161261	KeyDown	41324	4	Index	13
269.0216666666667	0	n/a	161414	KeyDown	41324	1	Little	13
269.3533333333334	0	n/a	161613	KeyDown	41324	3	Middle	13
269.5966666666667	0	n/a	161759	KeyDown	41324	2	Ring	13
269.8566666666667	0	n/a	161915	KeyDown	41324	4	Index	13
270.2266666666667	0	n/a	162137	KeyDown	41324	4	Index	13
270.4750000000000	0	n/a	162286	KeyDown	41324	1	Little	13
270.9066666666667	0	n/a	162545	KeyDown	41324	3	Middle	13
271.1416666666667	0	n/a	162686	KeyDown	41324	2	Ring	13
271.4116666666667	0	n/a	162848	KeyDown	41324	4	Index	13
271.8083333333333	0	n/a	163086	KeyDown	41324	4	Index	13
272.1133333333333	0	n/a	163269	KeyDown	41324	1	Little	13
272.5666666666667	0	n/a	163541	KeyDown	41324	3	Middle	13
272.8100000000000	0	n/a	163687	KeyDown	41324	2	Ring	13
273.1000000000000	0	n/a	163861	KeyDown	41324	4	Index	13
273.4200000000000	0	n/a	164053	KeyDown	41324	4	Index	13
273.8083333333333	0	n/a	164286	KeyDown	41324	1	Little	13
274.2783333333334	0	n/a	164568	KeyDown	41324	3	Middle	13
274.5150000000000	0	n/a	164710	KeyDown	41324	2	Ring	13
274.7500000000000	0	n/a	164851	KeyDown	41324	4	Index	13
275.1216666666667	0	n/a	165074	StopPractice	41324	n/a	n/a	13
275.1233333333333	0	n/a	165075	StartRest	XXXXX	n/a	n/a	13
285.1566666666667	0	n/a	171095	StopRest	XXXXX	n/a	n/a	13
285.1583333333334	0	UPPT001	171096	StartPractice	41324	n/a	n/a	14
285.5283333333334	0	n/a	171318	KeyDown	41324	4	Index	14
285.8400000000000	0	n/a	171505	KeyDown	41324	1	Little	14
286.2016666666667	0	n/a	171722	KeyDown	41324	3	Middle	14
286.4583333333334	0	n/a	171876	KeyDown	41324	2	Ring	14
286.7033333333334	0	n/a	172023	KeyDown	41324	4	Index	14
287.0333333333334	0	n/a	172221	KeyDown	41324	4	Index	14
287.2616666666667	0	n/a	172358	KeyDown	41324	1	Little	14
287.6283333333333	0	n/a	172578	KeyDown	41324	3	Middle	14
287.8633333333333	0	n/a	172719	KeyDown	41324	2	Ring	14
288.2033333333334	0	n/a	172923	KeyDown	41324	4	Index	14
288.5583333333333	0	n/a	173136	KeyDown	41324	4	Index	14
288.8500000000000	0	n/a	173311	KeyDown	41324	1	Little	14
289.2350000000000	0	n/a	173542	KeyDown	41324	3	Middle	14
289.5466666666667	0	n/a	173729	KeyDown	41324	2	Ring	14
289.8516666666667	0	n/a	173912	KeyDown	41324	4	Index	14
290.1833333333333	0	n/a	174111	KeyDown	41324	4	Index	14
290.4783333333334	0	n/a	174288	KeyDown	41324	1	Little	14
290.8700000000000	0	n/a	174523	KeyDown	41324	2	Ring	14
291.6416666666667	0	n/a	174986	KeyDown	41324	4	Index	14
291.9550000000000	0	n/a	175174	KeyDown	41324	1	Little	14
292.3500000000000	0	n/a	175411	KeyDown	41324	3	Middle	14
292.6616666666667	0	n/a	175598	KeyDown	41324	2	Ring	14
292.9416666666667	0	n/a	175766	KeyDown	41324	4	Index	14
293.2850000000000	0	n/a	175972	KeyDown	41324	4	Index	14
293.5616666666667	0	n/a	176138	KeyDown	41324	1	Little	14
293.9916666666667	0	n/a	176396	KeyDown	41324	3	Middle	14
294.3116666666667	0	n/a	176588	KeyDown	41324	2	Ring	14
294.6266666666667	0	n/a	176777	KeyDown	41324	4	Index	14
295.0216666666667	0	n/a	177014	KeyDown	41324	4	Index	14
295.1966666666667	0	n/a	177119	StopPractice	41324	n/a	n/a	14
295.1983333333334	0	n/a	177120	StartRest	XXXXX	n/a	n/a	14
305.2316666666667	0	n/a	183140	StopRest	XXXXX	n/a	n/a	14
305.2333333333333	0	UPPT001	183141	StartPractice	41324	n/a	n/a	15
305.6283333333333	0	n/a	183378	KeyDown	41324	4	Index	15
305.8950000000000	0	n/a	183538	KeyDown	41324	1	Little	15
306.2416666666667	0	n/a	183746	KeyDown	41324	3	Middle	15
306.4783333333334	0	n/a	183888	KeyDown	41324	2	Ring	15
306.7333333333333	0	n/a	184041	KeyDown	41324	4	Index	15
307.0450000000000	0	n/a	184228	KeyDown	41324	4	Index	15
307.3300000000000	0	n/a	184399	KeyDown	41324	1	Little	15
307.6850000000000	0	n/a	184612	KeyDown	41324	3	Middle	15
307.9150000000000	0	n/a	184750	KeyDown	41324	2	Ring	15
308.1800000000000	0	n/a	184909	KeyDown	41324	4	Index	15
308.4900000000000	0	n/a	185095	KeyDown	41324	4	Index	15
308.7716666666667	0	n/a	185264	KeyDown	41324	1	Little	15
309.1416666666667	0	n/a	185486	KeyDown	41324	3	Middle	15
309.4366666666667	0	n/a	185663	KeyDown	41324	2	Ring	15
309.7183333333334	0	n/a	185832	KeyDown	41324	4	Index	15
310.0400000000000	0	n/a	186025	KeyDown	41324	4	Index	15
310.3350000000000	0	n/a	186202	KeyDown	41324	1	Little	15
310.8566666666667	0	n/a	186515	KeyDown	41324	3	Middle	15
311.1500000000000	0	n/a	186691	KeyDown	41324	2	Ring	15
311.4800000000000	0	n/a	186889	KeyDown	41324	4	Index	15
311.8450000000000	0	n/a	187108	KeyDown	41324	4	Index	15
312.1500000000000	0	n/a	187291	KeyDown	41324	1	Little	15
312.5816666666667	0	n/a	187550	KeyDown	41324	3	Middle	15
312.8466666666667	0	n/a	187709	KeyDown	41324	2	Ring	15
313.0916666666667	0	n/a	187856	KeyDown	41324	4	Index	15
313.5050000000000	0	n/a	188104	KeyDown	41324	4	Index	15
313.8333333333334	0	n/a	188301	KeyDown	41324	1	Little	15
314.2916666666667	0	n/a	188576	KeyDown	41324	3	Middle	15
314.5783333333334	0	n/a	188748	KeyDown	41324	2	Ring	15
315.0550000000000	0	n/a	189034	KeyDown	41324	4	Index	15
315.2716666666667	0	n/a	189164	StopPractice	41324	n/a	n/a	15
315.2733333333334	0	n/a	189165	StartRest	XXXXX	n/a	n/a	15
325.3233333333334	0	n/a	195195	StopRest	XXXXX	n/a	n/a	15
325.3250000000000	0	UPPT001	195196	StartPractice	41324	n/a	n/a	16
325.7900000000000	0	n/a	195475	KeyDown	41324	4	Index	16
326.1016666666667	0	n/a	195662	KeyDown	41324	1	Little	16
326.4816666666667	0	n/a	195890	KeyDown	41324	3	Middle	16
326.6766666666667	0	n/a	196007	KeyDown	41324	2	Ring	16
326.9416666666667	0	n/a	196166	KeyDown	41324	4	Index	16
327.2516666666667	0	n/a	196352	KeyDown	41324	4	Index	16
327.4900000000000	0	n/a	196495	KeyDown	41324	1	Little	16
327.8133333333333	0	n/a	196689	KeyDown	41324	3	Middle	16
327.9966666666667	0	n/a	196799	KeyDown	41324	2	Ring	16
328.2716666666667	0	n/a	196964	KeyDown	41324	4	Index	16
328.6283333333333	0	n/a	197178	KeyDown	41324	4	Index	16
328.9500000000000	0	n/a	197371	KeyDown	41324	1	Little	16
329.3516666666667	0	n/a	197612	KeyDown	41324	3	Middle	16
329.5950000000000	0	n/a	197758	KeyDown	41324	2	Ring	16
329.8116666666667	0	n/a	197888	KeyDown	41324	4	Index	16
330.1316666666667	0	n/a	198080	KeyDown	41324	4	Index	16
330.4433333333333	0	n/a	198267	KeyDown	41324	1	Little	16
330.8200000000000	0	n/a	198493	KeyDown	41324	3	Middle	16
331.1183333333333	0	n/a	198672	KeyDown	41324	2	Ring	16
331.3600000000000	0	n/a	198817	KeyDown	41324	4	Index	16
331.6783333333333	0	n/a	199008	KeyDown	41324	4	Index	16
331.9633333333334	0	n/a	199179	KeyDown	41324	1	Little	16
332.3933333333334	0	n/a	199437	KeyDown	41324	3	Middle	16
332.7016666666667	0	n/a	199622	KeyDown	41324	2	Ring	16
332.9166666666667	0	n/a	199751	KeyDown	41324	4	Index	16
333.3133333333333	0	n/a	199989	KeyDown	41324	4	Index	16
333.6433333333334	0	n/a	200187	KeyDown	41324	1	Little	16
334.0783333333334	0	n/a	200448	KeyDown	41324	3	Middle	16
334.3133333333333	0	n/a	200589	KeyDown	41324	2	Ring	16
334.5850000000000	0	n/a	200752	KeyDown	41324	4	Index	16
334.9333333333333	0	n/a	200961	KeyDown	41324	4	Index	16
335.3316666666667	0	n/a	201200	KeyDown	41324	1	Little	16
335.3633333333333	0	n/a	201219	StopPractice	41324	n/a	n/a	16
335.3650000000000	0	n/a	201220	StartRest	XXXXX	n/a	n/a	16
345.4150000000000	0	n/a	207250	StopRest	XXXXX	n/a	n/a	16
345.4166666666667	0	UPPT001	207251	StartPractice	41324	n/a	n/a	17
345.8233333333334	0	n/a	207495	KeyDown	41324	4	Index	17
346.1083333333333	0	n/a	207666	KeyDown	41324	1	Little	17
346.4000000000000	0	n/a	207841	KeyDown	41324	3	Middle	17
346.6050000000000	0	n/a	207964	KeyDown	41324	2	Ring	17
346.8500000000000	0	n/a	208111	KeyDown	41324	4	Index	17
347.1266666666667	0	n/a	208277	KeyDown	41324	4	Index	17
347.3983333333334	0	n/a	208440	KeyDown	41324	1	Little	17
347.6750000000000	0	n/a	208606	KeyDown	41324	3	Middle	17
347.9000000000000	0	n/a	208741	KeyDown	41324	2	Ring	17
348.1050000000000	0	n/a	208864	KeyDown	41324	4	Index	17
348.4116666666667	0	n/a	209048	KeyDown	41324	4	Index	17
348.6500000000000	0	n/a	209191	KeyDown	41324	1	Little	17
348.9383333333333	0	n/a	209364	KeyDown	41324	3	Middle	17
349.2316666666667	0	n/a	209540	KeyDown	41324	2	Ring	17
349.5133333333334	0	n/a	209709	KeyDown	41324	4	Index	17
349.8216666666667	0	n/a	209894	KeyDown	41324	4	Index	17
350.1350000000000	0	n/a	210082	KeyDown	41324	1	Little	17
350.5383333333334	0	n/a	210324	KeyDown	41324	3	Middle	17
350.9133333333334	0	n/a	210549	KeyDown	41324	2	Ring	17
351.1383333333334	0	n/a	210684	KeyDown	41324	4	Index	17
351.5716666666667	0	n/a	210944	KeyDown	41324	4	Index	17
351.9066666666667	0	n/a	211145	KeyDown	41324	1	Little	17
352.3333333333334	0	n/a	211401	KeyDown	41324	3	Middle	17
352.6150000000000	0	n/a	211570	KeyDown	41324	2	Ring	17
352.9783333333334	0	n/a	211788	KeyDown	41324	4	Index	17
353.2833333333334	0	n/a	211971	KeyDown	41324	4	Index	17
353.6800000000000	0	n/a	212209	KeyDown	41324	1	Little	17
354.0150000000000	0	n/a	212410	KeyDown	41324	3	Middle	17
354.2816666666667	0	n/a	212570	KeyDown	41324	2	Ring	17
354.5116666666667	0	n/a	212708	KeyDown	41324	4	Index	17
355.1433333333334	0	n/a	213087	KeyDown	41324	1	Little	17
355.4550000000000	0	n/a	213274	StopPractice	41324	n/a	n/a	17
355.4566666666667	0	n/a	213275	StartRest	XXXXX	n/a	n/a	17
365.4900000000000	0	n/a	219295	StopRest	XXXXX	n/a	n/a	17
365.4916666666667	0	UPPT001	219296	StartPractice	41324	n/a	n/a	18
365.8750000000000	0	n/a	219526	KeyDown	41324	4	Index	18
366.1850000000000	0	n/a	219712	KeyDown	41324	1	Little	18
366.5100000000000	0	n/a	219907	KeyDown	41324	3	Middle	18
366.7250000000000	0	n/a	220036	KeyDown	41324	2	Ring	18
367.0416666666667	0	n/a	220226	KeyDown	41324	4	Index	18
367.3333333333334	0	n/a	220401	KeyDown	41324	4	Index	18
367.5816666666667	0	n/a	220550	KeyDown	41324	1	Little	18
367.9516666666667	0	n/a	220772	KeyDown	41324	3	Middle	18
368.1650000000000	0	n/a	220900	KeyDown	41324	2	Ring	18
368.3983333333334	0	n/a	221040	KeyDown	41324	4	Index	18
368.7000000000000	0	n/a	221221	KeyDown	41324	4	Index	18
368.9666666666667	0	n/a	221381	KeyDown	41324	1	Little	18
369.3300000000000	0	n/a	221599	KeyDown	41324	3	Middle	18
369.5583333333333	0	n/a	221736	KeyDown	41324	2	Ring	18
369.8400000000000	0	n/a	221905	KeyDown	41324	4	Index	18
370.1350000000000	0	n/a	222082	KeyDown	41324	4	Index	18
370.4416666666667	0	n/a	222266	KeyDown	41324	1	Little	18
370.7800000000000	0	n/a	222469	KeyDown	41324	3	Middle	18
371.0600000000000	0	n/a	222637	KeyDown	41324	2	Ring	18
371.3016666666667	0	n/a	222782	KeyDown	41324	4	Index	18
371.6233333333333	0	n/a	222975	KeyDown	41324	4	Index	18
371.9700000000000	0	n/a	223183	KeyDown	41324	1	Little	18
372.3683333333333	0	n/a	223422	KeyDown	41324	3	Middle	18
372.6650000000000	0	n/a	223600	KeyDown	41324	2	Ring	18
372.9166666666667	0	n/a	223751	KeyDown	41324	4	Index	18
373.4016666666667	0	n/a	224042	KeyDown	41324	4	Index	18
373.8966666666667	0	n/a	224339	KeyDown	41324	1	Little	18
374.2183333333334	0	n/a	224532	KeyDown	41324	3	Middle	18
374.4483333333334	0	n/a	224670	KeyDown	41324	2	Ring	18
374.7866666666667	0	n/a	224873	KeyDown	41324	4	Index	18
375.1000000000000	0	n/a	225061	KeyDown	41324	4	Index	18
375.5300000000000	0	n/a	225319	StopPractice	41324	n/a	n/a	18
375.5316666666667	0	n/a	225320	StartRest	XXXXX	n/a	n/a	18
385.5650000000000	0	n/a	231340	StopRest	XXXXX	n/a	n/a	18
385.5666666666667	0	UPPT001	231341	StartPractice	41324	n/a	n/a	19
386.0616666666667	0	n/a	231638	KeyDown	41324	4	Index	19
386.3966666666667	0	n/a	231839	KeyDown	41324	1	Little	19
386.7516666666667	0	n/a	232052	KeyDown	41324	3	Middle	19
386.9666666666667	0	n/a	232181	KeyDown	41324	2	Ring	19
387.2200000000000	0	n/a	232333	KeyDown	41324	4	Index	19
387.5616666666667	0	n/a	232538	KeyDown	41324	4	Index	19
387.9083333333334	0	n/a	232746	KeyDown	41324	1	Little	19
388.2416666666667	0	n/a	232946	KeyDown	41324	3	Middle	19
388.4133333333334	0	n/a	233049	KeyDown	41324	2	Ring	19
388.6466666666667	0	n/a	233189	KeyDown	41324	4	Index	19
388.9083333333334	0	n/a	233346	KeyDown	41324	4	Index	19
389.2066666666667	0	n/a	233525	KeyDown	41324	1	Little	19
389.5066666666667	0	n/a	233705	KeyDown	41324	3	Middle	19
389.6966666666667	0	n/a	233819	KeyDown	41324	2	Ring	19
389.9133333333334	0	n/a	233949	KeyDown	41324	4	Index	19
390.2166666666667	0	n/a	234131	KeyDown	41324	4	Index	19
390.5250000000000	0	n/a	234316	KeyDown	41324	1	Little	19
390.8650000000000	0	n/a	234520	KeyDown	41324	3	Middle	19
391.0150000000000	0	n/a	234610	KeyDown	41324	2	Ring	19
391.2950000000000	0	n/a	234778	KeyDown	41324	4	Index	19
391.5800000000000	0	n/a	234949	KeyDown	41324	4	Index	19
392.1583333333334	0	n/a	235296	KeyDown	41324	1	Little	19
392.5050000000001	0	n/a	235504	KeyDown	41324	3	Middle	19
392.7250000000000	0	n/a	235636	KeyDown	41324	2	Ring	19
393.0650000000000	0	n/a	235840	KeyDown	41324	4	Index	19
393.3850000000000	0	n/a	236032	KeyDown	41324	4	Index	19
393.9733333333334	0	n/a	236385	KeyDown	41324	1	Little	19
394.3066666666667	0	n/a	236585	KeyDown	41324	3	Middle	19
394.4633333333334	0	n/a	236679	KeyDown	41324	2	Ring	19
394.7916666666667	0	n/a	236876	KeyDown	41324	4	Index	19
395.5000000000000	0	n/a	237301	KeyDown	41324	4	Index	19
395.6050000000000	0	n/a	237364	StopPractice	41324	n/a	n/a	19
395.6066666666667	0	n/a	237365	StartRest	XXXXX	n/a	n/a	19
405.6550000000000	0	n/a	243394	StopRest	XXXXX	n/a	n/a	19
405.6566666666667	0	UPPT001	243395	StartPractice	41324	n/a	n/a	20
406.0916666666667	0	n/a	243656	KeyDown	41324	4	Index	20
406.3133333333333	0	n/a	243789	KeyDown	41324	1	Little	20
406.6233333333333	0	n/a	243975	KeyDown	41324	3	Middle	20
406.7816666666667	0	n/a	244070	KeyDown	41324	2	Ring	20
407.0366666666667	0	n/a	244223	KeyDown	41324	4	Index	20
407.2650000000000	0	n/a	244360	KeyDown	41324	4	Index	20
407.4483333333334	0	n/a	244470	KeyDown	41324	1	Little	20
407.7400000000000	0	n/a	244645	KeyDown	41324	3	Middle	20
407.9450000000001	0	n/a	244768	KeyDown	41324	2	Ring	20
408.1833333333333	0	n/a	244911	KeyDown	41324	4	Index	20
408.4900000000000	0	n/a	245095	KeyDown	41324	4	Index	20
408.7500000000000	0	n/a	245251	KeyDown	41324	1	Little	20
409.1083333333333	0	n/a	245466	KeyDown	41324	3	Middle	20
409.2800000000000	0	n/a	245569	KeyDown	41324	2	Ring	20
409.5683333333334	0	n/a	245742	KeyDown	41324	4	Index	20
409.9133333333334	0	n/a	245949	KeyDown	41324	4	Index	20
410.4316666666667	0	n/a	246260	KeyDown	41324	1	Little	20
410.8116666666667	0	n/a	246488	KeyDown	41324	3	Middle	20
410.9816666666667	0	n/a	246590	KeyDown	41324	2	Ring	20
411.2950000000000	0	n/a	246778	KeyDown	41324	4	Index	20
411.6300000000001	0	n/a	246979	KeyDown	41324	4	Index	20
411.9666666666667	0	n/a	247181	KeyDown	41324	1	Little	20
412.3116666666667	0	n/a	247388	KeyDown	41324	3	Middle	20
412.4966666666667	0	n/a	247499	KeyDown	41324	2	Ring	20
412.8116666666667	0	n/a	247688	KeyDown	41324	4	Index	20
413.2700000000000	0	n/a	247963	KeyDown	41324	4	Index	20
413.6666666666667	0	n/a	248201	KeyDown	41324	1	Little	20
414.1633333333334	0	n/a	248499	KeyDown	41324	3	Middle	20
414.4483333333334	0	n/a	248670	KeyDown	41324	2	Ring	20
414.7783333333334	0	n/a	248868	KeyDown	41324	4	Index	20
415.1916666666667	0	n/a	249116	KeyDown	41324	4	Index	20
415.5483333333333	0	n/a	249330	KeyDown	41324	1	Little	20
415.6950000000001	0	n/a	249418	StopPractice	41324	n/a	n/a	20
415.6966666666667	0	n/a	249419	StartRest	XXXXX	n/a	n/a	20
425.7300000000000	0	n/a	255439	StopRest	XXXXX	n/a	n/a	20
425.7316666666667	0	UPPT001	255440	StartPractice	41324	n/a	n/a	21
426.1850000000000	0	n/a	255712	KeyDown	41324	4	Index	21
426.4700000000000	0	n/a	255883	KeyDown	41324	1	Little	21
426.7050000000000	0	n/a	256024	KeyDown	41324	3	Middle	21
426.9033333333334	0	n/a	256143	KeyDown	41324	2	Ring	21
427.1883333333333	0	n/a	256314	KeyDown	41324	4	Index	21
427.4400000000001	0	n/a	256465	KeyDown	41324	4	Index	21
427.7150000000000	0	n/a	256630	KeyDown	41324	1	Little	21
427.9733333333334	0	n/a	256785	KeyDown	41324	3	Middle	21
428.1583333333334	0	n/a	256896	KeyDown	41324	2	Ring	21
428.4100000000000	0	n/a	257047	KeyDown	41324	4	Index	21
428.7183333333334	0	n/a	257232	KeyDown	41324	4	Index	21
429.2100000000000	0	n/a	257527	KeyDown	41324	1	Little	21
429.5183333333334	0	n/a	257712	KeyDown	41324	3	Middle	21
429.7400000000000	0	n/a	257845	KeyDown	41324	2	Ring	21
430.0116666666667	0	n/a	258008	KeyDown	41324	4	Index	21
430.3316666666667	0	n/a	258200	KeyDown	41324	4	Index	21
430.6483333333334	0	n/a	258390	KeyDown	41324	1	Little	21
431.0433333333334	0	n/a	258627	KeyDown	41324	3	Middle	21
431.2133333333334	0	n/a	258729	KeyDown	41324	2	Ring	21
431.5400000000000	0	n/a	258925	KeyDown	41324	4	Index	21
431.8483333333334	0	n/a	259110	KeyDown	41324	4	Index	21
432.1550000000000	0	n/a	259294	KeyDown	41324	1	Little	21
432.5233333333334	0	n/a	259515	KeyDown	41324	3	Middle	21
432.7700000000000	0	n/a	259663	KeyDown	41324	2	Ring	21
433.0233333333334	0	n/a	259815	KeyDown	41324	4	Index	21
433.3433333333334	0	n/a	260007	KeyDown	41324	4	Index	21
433.6750000000000	0	n/a	260206	KeyDown	41324	1	Little	21
434.0450000000000	0	n/a	260428	KeyDown	41324	3	Middle	21
434.2600000000000	0	n/a	260557	KeyDown	41324	2	Ring	21
434.5950000000000	0	n/a	260758	KeyDown	41324	4	Index	21
434.9366666666667	0	n/a	260963	KeyDown	41324	4	Index	21
435.3283333333334	0	n/a	261198	KeyDown	41324	1	Little	21
435.7383333333333	0	n/a	261444	KeyDown	41324	3	Middle	21
435.7700000000000	0	n/a	261463	StopPractice	41324	n/a	n/a	21
435.7716666666667	0	n/a	261464	StartRest	XXXXX	n/a	n/a	21
445.8216666666667	0	n/a	267494	StopRest	XXXXX	n/a	n/a	21
445.8233333333334	0	UPPT001	267495	StartPractice	41324	n/a	n/a	22
446.2216666666667	0	n/a	267734	KeyDown	41324	4	Index	22
446.4766666666667	0	n/a	267887	KeyDown	41324	1	Little	22
446.8050000000000	0	n/a	268084	KeyDown	41324	3	Middle	22
446.8883333333334	0	n/a	268134	KeyDown	41324	2	Ring	22
447.1600000000000	0	n/a	268297	KeyDown	41324	4	Index	22
447.4316666666667	0	n/a	268460	KeyDown	41324	4	Index	22
447.6466666666667	0	n/a	268589	KeyDown	41324	1	Little	22
447.9550000000000	0	n/a	268774	KeyDown	41324	3	Middle	22
448.0950000000000	0	n/a	268858	KeyDown	41324	2	Ring	22
448.3816666666667	0	n/a	269030	KeyDown	41324	4	Index	22
448.6783333333333	0	n/a	269208	KeyDown	41324	4	Index	22
448.9383333333334	0	n/a	269364	KeyDown	41324	1	Little	22
449.1650000000000	0	n/a	269500	KeyDown	41324	3	Middle	22
449.4266666666667	0	n/a	269657	KeyDown	41324	2	Ring	22
449.6866666666667	0	n/a	269813	KeyDown	41324	4	Index	22
449.9700000000000	0	n/a	269983	KeyDown	41324	4	Index	22
450.2250000000000	0	n/a	270136	KeyDown	41324	1	Little	22
450.5750000000000	0	n/a	270346	KeyDown	41324	3	Middle	22
450.8166666666667	0	n/a	270491	KeyDown	41324	2	Ring	22
451.0800000000000	0	n/a	270649	KeyDown	41324	4	Index	22
451.4250000000000	0	n/a	270856	KeyDown	41324	4	Index	22
451.6850000000000	0	n/a	271012	KeyDown	41324	1	Little	22
452.0250000000000	0	n/a	271216	KeyDown	41324	3	Middle	22
452.2300000000000	0	n/a	271339	KeyDown	41324	2	Ring	22
452.6250000000001	0	n/a	271576	KeyDown	41324	4	Index	22
452.9550000000000	0	n/a	271774	KeyDown	41324	4	Index	22
453.2466666666667	0	n/a	271949	KeyDown	41324	1	Little	22
453.6600000000000	0	n/a	272197	KeyDown	41324	3	Middle	22
453.8966666666667	0	n/a	272339	KeyDown	41324	2	Ring	22
454.2433333333333	0	n/a	272547	KeyDown	41324	4	Index	22
454.5366666666667	0	n/a	272723	KeyDown	41324	4	Index	22
454.7916666666667	0	n/a	272876	KeyDown	41324	1	Little	22
455.1133333333333	0	n/a	273069	KeyDown	41324	3	Middle	22
455.3866666666667	0	n/a	273233	KeyDown	41324	2	Ring	22
455.7966666666667	0	n/a	273479	KeyDown	41324	4	Index	22
455.8616666666667	0	n/a	273518	StopPractice	41324	n/a	n/a	22
455.8633333333333	0	n/a	273519	StartRest	XXXXX	n/a	n/a	22
465.9133333333334	0	n/a	279549	StopRest	XXXXX	n/a	n/a	22
465.9150000000000	0	UPPT001	279550	StartPractice	41324	n/a	n/a	23
466.3516666666667	0	n/a	279812	KeyDown	41324	4	Index	23
466.6266666666667	0	n/a	279977	KeyDown	41324	1	Little	23
466.9266666666667	0	n/a	280157	KeyDown	41324	3	Middle	23
467.0433333333334	0	n/a	280227	KeyDown	41324	2	Ring	23
467.3516666666667	0	n/a	280412	KeyDown	41324	4	Index	23
467.5833333333334	0	n/a	280551	KeyDown	41324	4	Index	23
467.7466666666667	0	n/a	280649	KeyDown	41324	1	Little	23
468.0133333333334	0	n/a	280809	KeyDown	41324	3	Middle	23
468.2033333333334	0	n/a	280923	KeyDown	41324	2	Ring	23
468.5216666666667	0	n/a	281114	KeyDown	41324	4	Index	23
468.8166666666667	0	n/a	281291	KeyDown	41324	4	Index	23
469.0833333333334	0	n/a	281451	KeyDown	41324	1	Little	23
469.4416666666667	0	n/a	281666	KeyDown	41324	3	Middle	23
469.5433333333334	0	n/a	281727	KeyDown	41324	2	Ring	23
469.8466666666667	0	n/a	281909	KeyDown	41324	4	Index	23
470.1183333333333	0	n/a	282072	KeyDown	41324	4	Index	23
470.4233333333333	0	n/a	282255	KeyDown	41324	1	Little	23
470.8000000000000	0	n/a	282481	KeyDown	41324	3	Middle	23
470.9566666666667	0	n/a	282575	KeyDown	41324	2	Ring	23
471.2733333333334	0	n/a	282765	KeyDown	41324	4	Index	23
471.6250000000001	0	n/a	282976	KeyDown	41324	4	Index	23
472.0150000000000	0	n/a	283210	KeyDown	41324	1	Little	23
472.3966666666667	0	n/a	283439	KeyDown	41324	3	Middle	23
472.6016666666667	0	n/a	283562	KeyDown	41324	2	Ring	23
472.9433333333334	0	n/a	283767	KeyDown	41324	1	Little	23
473.5716666666667	0	n/a	284144	KeyDown	41324	4	Index	23
474.4583333333334	0	n/a	284676	KeyDown	41324	4	Index	23
474.7433333333333	0	n/a	284847	KeyDown	41324	1	Little	23
475.0783333333334	0	n/a	285048	KeyDown	41324	3	Middle	23
475.1566666666667	0	n/a	285095	KeyDown	41324	2	Ring	23
475.9233333333333	0	n/a	285555	KeyDown	41324	4	Index	23
475.9533333333334	0	n/a	285573	StopPractice	41324	n/a	n/a	23
475.9550000000000	0	n/a	285574	StartRest	XXXXX	n/a	n/a	23
486.0050000000001	0	n/a	291604	StopRest	XXXXX	n/a	n/a	23
486.0066666666667	0	UPPT001	291605	StartPractice	41324	n/a	n/a	24
486.4200000000000	0	n/a	291853	KeyDown	41324	4	Index	24
486.7150000000000	0	n/a	292030	KeyDown	41324	1	Little	24
486.9333333333333	0	n/a	292161	KeyDown	41324	3	Middle	24
487.0700000000001	0	n/a	292243	KeyDown	41324	2	Ring	24
487.3983333333334	0	n/a	292440	KeyDown	41324	4	Index	24
487.6750000000000	0	n/a	292606	KeyDown	41324	4	Index	24
487.9650000000000	0	n/a	292780	KeyDown	41324	1	Little	24
488.1650000000000	0	n/a	292900	KeyDown	41324	3	Middle	24
488.3800000000001	0	n/a	293029	KeyDown	41324	2	Ring	24
488.6966666666667	0	n/a	293219	KeyDown	41324	4	Index	24
488.9666666666667	0	n/a	293381	KeyDown	41324	4	Index	24
489.2133333333334	0	n/a	293529	KeyDown	41324	1	Little	24
489.4800000000000	0	n/a	293689	KeyDown	41324	3	Middle	24
489.7000000000000	0	n/a	293821	KeyDown	41324	2	Ring	24
490.0833333333334	0	n/a	294051	KeyDown	41324	4	Index	24
490.3916666666667	0	n/a	294236	KeyDown	41324	4	Index	24
490.6950000000001	0	n/a	294418	KeyDown	41324	1	Little	24
491.0316666666667	0	n/a	294620	KeyDown	41324	3	Middle	24
491.1733333333333	0	n/a	294705	KeyDown	41324	2	Ring	24
491.5266666666667	0	n/a	294917	KeyDown	41324	4	Index	24
491.8483333333334	0	n/a	295110	KeyDown	41324	4	Index	24
492.1933333333334	0	n/a	295317	KeyDown	41324	1	Little	24
492.4700000000000	0	n/a	295483	KeyDown	41324	3	Middle	24
492.7000000000000	0	n/a	295621	KeyDown	41324	2	Ring	24
493.1050000000000	0	n/a	295864	KeyDown	41324	4	Index	24
493.3733333333334	0	n/a	296025	KeyDown	41324	4	Index	24
493.6633333333334	0	n/a	296199	KeyDown	41324	1	Little	24
493.9133333333334	0	n/a	296349	KeyDown	41324	3	Middle	24
494.1416666666667	0	n/a	296486	KeyDown	41324	2	Ring	24
494.5533333333333	0	n/a	296733	KeyDown	41324	4	Index	24
494.8650000000000	0	n/a	296920	KeyDown	41324	4	Index	24
495.1750000000000	0	n/a	297106	KeyDown	41324	1	Little	24
495.5000000000001	0	n/a	297301	KeyDown	41324	3	Middle	24
495.7216666666667	0	n/a	297434	KeyDown	41324	2	Ring	24
496.0450000000000	0	n/a	297628	StopPractice	41324	n/a	n/a	24
496.0466666666667	0	n/a	297629	StartRest	XXXXX	n/a	n/a	24
506.0800000000000	0	n/a	303649	StopRest	XXXXX	n/a	n/a	24
506.0816666666667	0	UPPT001	303650	StartPractice	41324	n/a	n/a	25
506.4783333333334	0	n/a	303888	KeyDown	41324	4	Index	25
506.7250000000000	0	n/a	304036	KeyDown	41324	1	Little	25
507.0316666666667	0	n/a	304220	KeyDown	41324	3	Middle	25
507.1150000000000	0	n/a	304270	KeyDown	41324	2	Ring	25
507.4566666666667	0	n/a	304475	KeyDown	41324	4	Index	25
507.6800000000000	0	n/a	304609	KeyDown	41324	4	Index	25
507.9083333333334	0	n/a	304746	KeyDown	41324	1	Little	25
508.1616666666667	0	n/a	304898	KeyDown	41324	3	Middle	25
508.2933333333334	0	n/a	304977	KeyDown	41324	2	Ring	25
508.6016666666667	0	n/a	305162	KeyDown	41324	4	Index	25
508.8783333333334	0	n/a	305328	KeyDown	41324	4	Index	25
509.1033333333334	0	n/a	305463	KeyDown	41324	1	Little	25
509.3800000000001	0	n/a	305629	KeyDown	41324	3	Middle	25
509.5200000000000	0	n/a	305713	KeyDown	41324	2	Ring	25
509.8433333333334	0	n/a	305907	KeyDown	41324	4	Index	25
510.1150000000000	0	n/a	306070	KeyDown	41324	4	Index	25
510.4233333333333	0	n/a	306255	KeyDown	41324	1	Little	25
510.7133333333334	0	n/a	306429	KeyDown	41324	4	Index	25
510.8916666666667	0	n/a	306536	KeyDown	41324	3	Middle	25
511.3033333333333	0	n/a	306783	KeyDown	41324	2	Ring	25
511.6950000000001	0	n/a	307018	KeyDown	41324	4	Index	25
512.2000000000000	0	n/a	307321	KeyDown	41324	1	Little	25
512.6450000000000	0	n/a	307588	KeyDown	41324	3	Middle	25
512.8316666666667	0	n/a	307700	KeyDown	41324	2	Ring	25
513.1700000000001	0	n/a	307903	KeyDown	41324	4	Index	25
513.5350000000001	0	n/a	308122	KeyDown	41324	4	Index	25
513.9433333333334	0	n/a	308367	KeyDown	41324	1	Little	25
514.4250000000001	0	n/a	308656	KeyDown	41324	2	Ring	25
515.3466666666667	0	n/a	309209	KeyDown	41324	3	Middle	25
515.4883333333333	0	n/a	309294	KeyDown	41324	2	Ring	25
516.1200000000000	0	n/a	309673	StopPractice	41324	n/a	n/a	25
516.1216666666667	0	n/a	309674	StartRest	XXXXX	n/a	n/a	25
526.1550000000001	0	n/a	315694	StopRest	XXXXX	n/a	n/a	25
526.1566666666668	0	UPPT001	315695	StartPractice	41324	n/a	n/a	26
526.7633333333333	0	n/a	316059	KeyDown	41324	4	Index	26
527.0650000000001	0	n/a	316240	KeyDown	41324	1	Little	26
527.4083333333334	0	n/a	316446	KeyDown	41324	3	Middle	26
527.5583333333334	0	n/a	316536	KeyDown	41324	2	Ring	26
527.8933333333333	0	n/a	316737	KeyDown	41324	4	Index	26
528.2850000000001	0	n/a	316972	KeyDown	41324	4	Index	26
528.6483333333333	0	n/a	317190	KeyDown	41324	1	Little	26
528.9550000000000	0	n/a	317374	KeyDown	41324	3	Middle	26
529.1916666666667	0	n/a	317516	KeyDown	41324	2	Ring	26
529.5533333333334	0	n/a	317733	KeyDown	41324	1	Little	26
530.3166666666667	0	n/a	318191	KeyDown	41324	4	Index	26
531.0283333333334	0	n/a	318618	KeyDown	41324	1	Little	26
531.4833333333333	0	n/a	318891	KeyDown	41324	3	Middle	26
531.6033333333334	0	n/a	318963	KeyDown	41324	2	Ring	26
531.9883333333333	0	n/a	319194	KeyDown	41324	4	Index	26
532.3416666666667	0	n/a	319406	KeyDown	41324	4	Index	26
532.7100000000000	0	n/a	319627	KeyDown	41324	1	Little	26
533.1300000000000	0	n/a	319879	KeyDown	41324	3	Middle	26
533.4333333333334	0	n/a	320061	KeyDown	41324	2	Ring	26
533.9033333333334	0	n/a	320343	KeyDown	41324	4	Index	26
534.2583333333333	0	n/a	320556	KeyDown	41324	4	Index	26
534.6033333333334	0	n/a	320763	KeyDown	41324	1	Little	26
534.9783333333334	0	n/a	320988	KeyDown	41324	3	Middle	26
535.1733333333334	0	n/a	321105	KeyDown	41324	2	Ring	26
535.6333333333333	0	n/a	321381	KeyDown	41324	4	Index	26
536.0850000000000	0	n/a	321652	KeyDown	41324	4	Index	26
536.1950000000001	0	n/a	321718	StopPractice	41324	n/a	n/a	26
536.1966666666667	0	n/a	321719	StartRest	XXXXX	n/a	n/a	26
546.2283333333334	0	n/a	327738	StopRest	XXXXX	n/a	n/a	26
546.2300000000000	0	UPPT001	327739	StartPractice	41324	n/a	n/a	27
546.7616666666667	0	n/a	328058	KeyDown	41324	4	Index	27
547.0433333333334	0	n/a	328227	KeyDown	41324	1	Little	27
547.2700000000000	0	n/a	328363	KeyDown	41324	3	Middle	27
547.4233333333334	0	n/a	328455	KeyDown	41324	2	Ring	27
547.7533333333333	0	n/a	328653	KeyDown	41324	4	Index	27
548.0116666666667	0	n/a	328808	KeyDown	41324	4	Index	27
548.2983333333334	0	n/a	328980	KeyDown	41324	1	Little	27
548.5366666666667	0	n/a	329123	KeyDown	41324	3	Middle	27
548.7016666666667	0	n/a	329222	KeyDown	41324	2	Ring	27
549.0116666666667	0	n/a	329408	KeyDown	41324	4	Index	27
549.2866666666667	0	n/a	329573	KeyDown	41324	4	Index	27
549.5816666666667	0	n/a	329750	KeyDown	41324	1	Little	27
549.9583333333334	0	n/a	329976	KeyDown	41324	3	Middle	27
550.1366666666667	0	n/a	330083	KeyDown	41324	2	Ring	27
550.4733333333334	0	n/a	330285	KeyDown	41324	4	Index	27
550.7916666666667	0	n/a	330476	KeyDown	41324	4	Index	27
551.5266666666668	0	n/a	330917	KeyDown	41324	1	Little	27
551.8466666666667	0	n/a	331109	KeyDown	41324	3	Middle	27
551.9983333333333	0	n/a	331200	KeyDown	41324	2	Ring	27
552.3566666666667	0	n/a	331415	KeyDown	41324	4	Index	27
552.6766666666667	0	n/a	331607	KeyDown	41324	4	Index	27
553.0266666666668	0	n/a	331817	KeyDown	41324	1	Little	27
553.4116666666667	0	n/a	332048	KeyDown	41324	3	Middle	27
553.7133333333334	0	n/a	332229	KeyDown	41324	2	Ring	27
554.1900000000001	0	n/a	332515	KeyDown	41324	4	Index	27
554.5083333333333	0	n/a	332706	KeyDown	41324	4	Index	27
555.1066666666667	0	n/a	333065	KeyDown	41324	1	Little	27
555.5233333333334	0	n/a	333315	KeyDown	41324	3	Middle	27
555.6683333333334	0	n/a	333402	KeyDown	41324	2	Ring	27
556.1516666666668	0	n/a	333692	KeyDown	41324	4	Index	27
556.2683333333333	0	n/a	333762	StopPractice	41324	n/a	n/a	27
556.2700000000000	0	n/a	333763	StartRest	XXXXX	n/a	n/a	27
566.3050000000001	0	n/a	339784	StopRest	XXXXX	n/a	n/a	27
566.3066666666667	0	UPPT001	339785	StartPractice	41324	n/a	n/a	28
566.7650000000000	0	n/a	340060	KeyDown	41324	4	Index	28
567.0700000000001	0	n/a	340243	KeyDown	41324	1	Little	28
567.4100000000001	0	n/a	340447	KeyDown	41324	3	Middle	28
567.5250000000001	0	n/a	340516	KeyDown	41324	2	Ring	28
567.8333333333334	0	n/a	340701	KeyDown	41324	4	Index	28
568.1500000000001	0	n/a	340891	KeyDown	41324	4	Index	28
568.4983333333333	0	n/a	341100	KeyDown	41324	1	Little	28
568.8166666666667	0	n/a	341291	KeyDown	41324	3	Middle	28
568.9533333333334	0	n/a	341373	KeyDown	41324	2	Ring	28
569.2883333333334	0	n/a	341574	KeyDown	41324	4	Index	28
569.6083333333333	0	n/a	341766	KeyDown	41324	4	Index	28
569.9283333333334	0	n/a	341958	KeyDown	41324	1	Little	28
570.2400000000000	0	n/a	342145	KeyDown	41324	3	Middle	28
570.4000000000001	0	n/a	342241	KeyDown	41324	2	Ring	28
570.7816666666668	0	n/a	342470	KeyDown	41324	4	Index	28
571.0916666666667	0	n/a	342656	KeyDown	41324	4	Index	28
571.7350000000000	0	n/a	343042	KeyDown	41324	1	Little	28
572.1483333333334	0	n/a	343290	KeyDown	41324	3	Middle	28
572.2650000000000	0	n/a	343360	KeyDown	41324	2	Ring	28
572.6683333333334	0	n/a	343602	KeyDown	41324	4	Index	28
573.0283333333334	0	n/a	343818	KeyDown	41324	4	Index	28
573.4483333333334	0	n/a	344070	KeyDown	41324	1	Little	28
573.8183333333334	0	n/a	344292	KeyDown	41324	3	Middle	28
573.9900000000000	0	n/a	344395	KeyDown	41324	2	Ring	28
574.3983333333334	0	n/a	344640	KeyDown	41324	4	Index	28
574.7350000000000	0	n/a	344842	KeyDown	41324	4	Index	28
575.4716666666667	0	n/a	345284	KeyDown	41324	1	Little	28
575.8850000000000	0	n/a	345532	KeyDown	41324	3	Middle	28
575.9183333333334	0	n/a	345552	KeyDown	41324	2	Ring	28
576.3450000000000	0	n/a	345808	StopPractice	41324	n/a	n/a	28
576.3466666666667	0	n/a	345809	StartRest	XXXXX	n/a	n/a	28
586.3800000000000	0	n/a	351829	StopRest	XXXXX	n/a	n/a	28
586.3816666666667	0	UPPT001	351830	StartPractice	41324	n/a	n/a	29
586.8533333333334	0	n/a	352113	KeyDown	41324	4	Index	29
587.1566666666668	0	n/a	352295	KeyDown	41324	1	Little	29
587.4900000000000	0	n/a	352495	KeyDown	41324	3	Middle	29
587.6083333333333	0	n/a	352566	KeyDown	41324	2	Ring	29
587.9283333333334	0	n/a	352758	KeyDown	41324	4	Index	29
588.1816666666667	0	n/a	352910	KeyDown	41324	4	Index	29
588.5083333333333	0	n/a	353106	KeyDown	41324	1	Little	29
588.7400000000000	0	n/a	353245	KeyDown	41324	3	Middle	29
588.8983333333334	0	n/a	353340	KeyDown	41324	2	Ring	29
589.1900000000001	0	n/a	353515	KeyDown	41324	4	Index	29
589.4816666666667	0	n/a	353690	KeyDown	41324	4	Index	29
589.8166666666667	0	n/a	353891	KeyDown	41324	1	Little	29
590.0933333333334	0	n/a	354057	KeyDown	41324	3	Middle	29
590.2750000000001	0	n/a	354166	KeyDown	41324	2	Ring	29
590.6166666666667	0	n/a	354371	KeyDown	41324	4	Index	29
590.9066666666668	0	n/a	354545	KeyDown	41324	4	Index	29
591.4300000000001	0	n/a	354859	KeyDown	41324	1	Little	29
591.8050000000001	0	n/a	355084	KeyDown	41324	3	Middle	29
591.9383333333334	0	n/a	355164	KeyDown	41324	2	Ring	29
592.3450000000000	0	n/a	355408	KeyDown	41324	4	Index	29
593.1300000000000	0	n/a	355879	KeyDown	41324	4	Index	29
593.6583333333334	0	n/a	356196	KeyDown	41324	1	Little	29
594.1783333333334	0	n/a	356508	KeyDown	41324	3	Middle	29
594.3383333333334	0	n/a	356604	KeyDown	41324	2	Ring	29
594.7300000000000	0	n/a	356839	KeyDown	41324	4	Index	29
595.0900000000000	0	n/a	357055	KeyDown	41324	4	Index	29
595.4800000000000	0	n/a	357289	KeyDown	41324	1	Little	29
595.9150000000001	0	n/a	357550	KeyDown	41324	3	Middle	29
596.1133333333333	0	n/a	357669	KeyDown	41324	2	Ring	29
596.4200000000001	0	n/a	357853	StopPractice	41324	n/a	n/a	29
596.4216666666667	0	n/a	357854	StartRest	XXXXX	n/a	n/a	29
606.4700000000000	0	n/a	363883	StopRest	XXXXX	n/a	n/a	29
606.4716666666667	0	UPPT001	363884	StartPractice	41324	n/a	n/a	30
606.8783333333333	0	n/a	364128	KeyDown	41324	4	Index	30
607.1600000000001	0	n/a	364297	KeyDown	41324	1	Little	30
607.4766666666667	0	n/a	364487	KeyDown	41324	3	Middle	30
607.5966666666667	0	n/a	364559	KeyDown	41324	2	Ring	30
607.9000000000001	0	n/a	364741	KeyDown	41324	4	Index	30
608.1750000000001	0	n/a	364906	KeyDown	41324	4	Index	30
608.4200000000001	0	n/a	365053	KeyDown	41324	1	Little	30
608.6650000000001	0	n/a	365200	KeyDown	41324	3	Middle	30
608.8850000000000	0	n/a	365332	KeyDown	41324	2	Ring	30
609.1750000000001	0	n/a	365506	KeyDown	41324	4	Index	30
609.4950000000000	0	n/a	365698	KeyDown	41324	4	Index	30
609.8983333333334	0	n/a	365940	KeyDown	41324	1	Little	30
610.2650000000000	0	n/a	366160	KeyDown	41324	3	Middle	30
610.4033333333334	0	n/a	366243	KeyDown	41324	2	Ring	30
610.7600000000000	0	n/a	366457	KeyDown	41324	4	Index	30
611.0816666666667	0	n/a	366650	KeyDown	41324	4	Index	30
611.4283333333334	0	n/a	366858	KeyDown	41324	1	Little	30
611.7983333333334	0	n/a	367080	KeyDown	41324	3	Middle	30
611.9233333333334	0	n/a	367155	KeyDown	41324	2	Ring	30
612.2900000000001	0	n/a	367375	KeyDown	41324	4	Index	30
612.5950000000000	0	n/a	367558	KeyDown	41324	4	Index	30
612.9400000000001	0	n/a	367765	KeyDown	41324	1	Little	30
613.3150000000001	0	n/a	367990	KeyDown	41324	3	Middle	30
613.4916666666667	0	n/a	368096	KeyDown	41324	2	Ring	30
613.8950000000001	0	n/a	368338	KeyDown	41324	4	Index	30
614.6183333333333	0	n/a	368772	KeyDown	41324	4	Index	30
615.0133333333333	0	n/a	369009	KeyDown	41324	1	Little	30
615.4600000000000	0	n/a	369277	KeyDown	41324	3	Middle	30
615.6450000000001	0	n/a	369388	KeyDown	41324	2	Ring	30
616.0100000000000	0	n/a	369607	KeyDown	41324	4	Index	30
616.3816666666667	0	n/a	369830	KeyDown	41324	4	Index	30
616.5100000000000	0	n/a	369907	StopPractice	41324	n/a	n/a	30
616.5116666666667	0	n/a	369908	StartRest	XXXXX	n/a	n/a	30
626.5450000000001	0	n/a	375928	StopRest	XXXXX	n/a	n/a	30
626.5466666666667	0	UPPT001	375929	StartPractice	41324	n/a	n/a	31
626.9983333333333	0	n/a	376200	KeyDown	41324	4	Index	31
627.3233333333334	0	n/a	376395	KeyDown	41324	1	Little	31
627.6400000000000	0	n/a	376585	KeyDown	41324	3	Middle	31
627.7300000000000	0	n/a	376639	KeyDown	41324	2	Ring	31
628.0533333333334	0	n/a	376833	KeyDown	41324	4	Index	31
628.3416666666667	0	n/a	377006	KeyDown	41324	4	Index	31
628.6833333333334	0	n/a	377211	KeyDown	41324	1	Little	31
628.9750000000000	0	n/a	377386	KeyDown	41324	3	Middle	31
629.1050000000000	0	n/a	377464	KeyDown	41324	2	Ring	31
629.4416666666667	0	n/a	377666	KeyDown	41324	4	Index	31
629.7450000000000	0	n/a	377848	KeyDown	41324	4	Index	31
630.1433333333334	0	n/a	378087	KeyDown	41324	1	Little	31
630.5533333333334	0	n/a	378333	KeyDown	41324	3	Middle	31
630.6650000000001	0	n/a	378400	KeyDown	41324	2	Ring	31
631.0683333333334	0	n/a	378642	KeyDown	41324	4	Index	31
631.4250000000001	0	n/a	378856	KeyDown	41324	4	Index	31
631.9633333333334	0	n/a	379179	KeyDown	41324	1	Little	31
632.3433333333334	0	n/a	379407	KeyDown	41324	3	Middle	31
632.4550000000000	0	n/a	379474	KeyDown	41324	2	Ring	31
632.8333333333334	0	n/a	379701	KeyDown	41324	4	Index	31
633.2966666666667	0	n/a	379979	KeyDown	41324	4	Index	31
633.7433333333333	0	n/a	380247	KeyDown	41324	1	Little	31
634.2083333333334	0	n/a	380526	KeyDown	41324	3	Middle	31
634.2533333333333	0	n/a	380553	KeyDown	41324	2	Ring	31
634.7050000000000	0	n/a	380824	KeyDown	41324	4	Index	31
635.3333333333334	0	n/a	381201	KeyDown	41324	4	Index	31
635.7250000000000	0	n/a	381436	KeyDown	41324	1	Little	31
636.2333333333333	0	n/a	381741	KeyDown	41324	3	Middle	31
636.3833333333333	0	n/a	381831	KeyDown	41324	2	Ring	31
636.5850000000000	0	n/a	381952	StopPractice	41324	n/a	n/a	31
636.5866666666667	0	n/a	381953	StartRest	XXXXX	n/a	n/a	31
646.6200000000000	0	n/a	387973	StopRest	XXXXX	n/a	n/a	31
646.6216666666667	0	UPPT001	387974	StartPractice	41324	n/a	n/a	32
647.1566666666668	0	n/a	388295	KeyDown	41324	4	Index	32
647.4750000000000	0	n/a	388486	KeyDown	41324	1	Little	32
647.8183333333334	0	n/a	388692	KeyDown	41324	3	Middle	32
647.9233333333334	0	n/a	388755	KeyDown	41324	2	Ring	32
648.2400000000000	0	n/a	388945	KeyDown	41324	4	Index	32
648.5900000000000	0	n/a	389155	KeyDown	41324	4	Index	32
648.9683333333334	0	n/a	389382	KeyDown	41324	1	Little	32
649.3533333333334	0	n/a	389613	KeyDown	41324	3	Middle	32
649.5650000000001	0	n/a	389740	KeyDown	41324	2	Ring	32
650.0366666666667	0	n/a	390023	KeyDown	41324	4	Index	32
650.6200000000000	0	n/a	390373	KeyDown	41324	4	Index	32
651.0250000000001	0	n/a	390616	KeyDown	41324	1	Little	32
651.4033333333334	0	n/a	390843	KeyDown	41324	3	Middle	32
651.5016666666667	0	n/a	390902	KeyDown	41324	2	Ring	32
651.8883333333333	0	n/a	391134	KeyDown	41324	4	Index	32
652.7416666666667	0	n/a	391646	KeyDown	41324	4	Index	32
653.1000000000000	0	n/a	391861	KeyDown	41324	1	Little	32
653.4933333333333	0	n/a	392097	KeyDown	41324	3	Middle	32
653.6183333333333	0	n/a	392172	KeyDown	41324	2	Ring	32
653.9716666666667	0	n/a	392384	KeyDown	41324	4	Index	32
654.3650000000000	0	n/a	392620	KeyDown	41324	4	Index	32
654.8033333333334	0	n/a	392883	KeyDown	41324	1	Little	32
655.2100000000000	0	n/a	393127	KeyDown	41324	3	Middle	32
655.3233333333334	0	n/a	393195	KeyDown	41324	2	Ring	32
655.7150000000000	0	n/a	393430	KeyDown	41324	4	Index	32
656.3683333333333	0	n/a	393822	KeyDown	41324	4	Index	32
656.6600000000001	0	n/a	393997	StopPractice	41324	n/a	n/a	32
656.6616666666667	0	n/a	393998	StartRest	XXXXX	n/a	n/a	32
666.6950000000001	0	n/a	400018	StopRest	XXXXX	n/a	n/a	32
666.6966666666667	0	UPPT001	400019	StartPractice	41324	n/a	n/a	33
667.1433333333334	0	n/a	400287	KeyDown	41324	4	Index	33
667.4183333333334	0	n/a	400452	KeyDown	41324	1	Little	33
667.7116666666667	0	n/a	400628	KeyDown	41324	3	Middle	33
667.8100000000001	0	n/a	400687	KeyDown	41324	2	Ring	33
668.1350000000000	0	n/a	400882	KeyDown	41324	4	Index	33
668.4016666666668	0	n/a	401042	KeyDown	41324	4	Index	33
668.7283333333334	0	n/a	401238	KeyDown	41324	1	Little	33
669.0066666666667	0	n/a	401405	KeyDown	41324	3	Middle	33
669.1150000000000	0	n/a	401470	KeyDown	41324	2	Ring	33
669.4466666666667	0	n/a	401669	KeyDown	41324	4	Index	33
669.7283333333334	0	n/a	401838	KeyDown	41324	4	Index	33
670.1700000000001	0	n/a	402103	KeyDown	41324	1	Little	33
670.5233333333334	0	n/a	402315	KeyDown	41324	3	Middle	33
670.6416666666668	0	n/a	402386	KeyDown	41324	2	Ring	33
670.9716666666667	0	n/a	402584	KeyDown	41324	4	Index	33
671.3233333333334	0	n/a	402795	KeyDown	41324	1	Little	33
672.1850000000001	0	n/a	403312	KeyDown	41324	4	Index	33
672.5983333333334	0	n/a	403560	KeyDown	41324	1	Little	33
672.9733333333334	0	n/a	403785	KeyDown	41324	3	Middle	33
673.1316666666667	0	n/a	403880	KeyDown	41324	2	Ring	33
673.5433333333334	0	n/a	404127	KeyDown	41324	4	Index	33
673.9200000000001	0	n/a	404353	KeyDown	41324	4	Index	33
674.2416666666667	0	n/a	404546	KeyDown	41324	1	Little	33
674.5550000000001	0	n/a	404734	KeyDown	41324	3	Middle	33
674.7216666666667	0	n/a	404834	KeyDown	41324	2	Ring	33
675.0616666666667	0	n/a	405038	KeyDown	41324	4	Index	33
675.3883333333333	0	n/a	405234	KeyDown	41324	4	Index	33
675.8483333333334	0	n/a	405510	KeyDown	41324	1	Little	33
676.1616666666667	0	n/a	405698	KeyDown	41324	3	Middle	33
676.3983333333334	0	n/a	405840	KeyDown	41324	2	Ring	33
676.7350000000000	0	n/a	406042	StopPractice	41324	n/a	n/a	33
676.7366666666667	0	n/a	406043	StartRest	XXXXX	n/a	n/a	33
686.7700000000001	0	n/a	412063	StopRest	XXXXX	n/a	n/a	33
686.7716666666668	0	UPPT001	412064	StartPractice	41324	n/a	n/a	34
687.2366666666667	0	n/a	412343	KeyDown	41324	4	Index	34
687.5883333333334	0	n/a	412554	KeyDown	41324	1	Little	34
687.9633333333334	0	n/a	412779	KeyDown	41324	3	Middle	34
688.2133333333334	0	n/a	412929	KeyDown	41324	2	Ring	34
688.6216666666667	0	n/a	413174	KeyDown	41324	4	Index	34
688.9916666666667	0	n/a	413396	KeyDown	41324	4	Index	34
689.4966666666667	0	n/a	413699	KeyDown	41324	1	Little	34
689.8483333333334	0	n/a	413910	KeyDown	41324	3	Middle	34
689.9250000000001	0	n/a	413956	KeyDown	41324	2	Ring	34
690.3083333333334	0	n/a	414186	KeyDown	41324	4	Index	34
690.6066666666667	0	n/a	414365	KeyDown	41324	4	Index	34
690.9400000000001	0	n/a	414565	KeyDown	41324	1	Little	34
691.1350000000000	0	n/a	414682	KeyDown	41324	3	Middle	34
691.3450000000000	0	n/a	414808	KeyDown	41324	2	Ring	34
691.6600000000001	0	n/a	414997	KeyDown	41324	4	Index	34
691.9666666666667	0	n/a	415181	KeyDown	41324	4	Index	34
692.2583333333333	0	n/a	415356	KeyDown	41324	1	Little	34
692.5150000000001	0	n/a	415510	KeyDown	41324	3	Middle	34
692.6933333333334	0	n/a	415617	KeyDown	41324	2	Ring	34
693.0283333333334	0	n/a	415818	KeyDown	41324	4	Index	34
693.3233333333334	0	n/a	415995	KeyDown	41324	4	Index	34
693.6333333333333	0	n/a	416181	KeyDown	41324	1	Little	34
693.8233333333334	0	n/a	416295	KeyDown	41324	3	Middle	34
694.1233333333333	0	n/a	416475	KeyDown	41324	2	Ring	34
694.5183333333334	0	n/a	416712	KeyDown	41324	4	Index	34
694.8766666666667	0	n/a	416927	KeyDown	41324	4	Index	34
695.2566666666667	0	n/a	417155	KeyDown	41324	1	Little	34
695.5183333333334	0	n/a	417312	KeyDown	41324	3	Middle	34
695.7850000000001	0	n/a	417472	KeyDown	41324	2	Ring	34
696.1283333333333	0	n/a	417678	KeyDown	41324	4	Index	34
696.4400000000001	0	n/a	417865	KeyDown	41324	4	Index	34
696.7283333333334	0	n/a	418038	KeyDown	41324	1	Little	34
696.8100000000001	0	n/a	418087	StopPractice	41324	n/a	n/a	34
696.8116666666667	0	n/a	418088	StartRest	XXXXX	n/a	n/a	34
706.8450000000000	0	n/a	424108	StopRest	XXXXX	n/a	n/a	34
706.8466666666667	0	UPPT001	424109	StartPractice	41324	n/a	n/a	35
707.2800000000001	0	n/a	424369	KeyDown	41324	4	Index	35
707.5583333333334	0	n/a	424536	KeyDown	41324	1	Little	35
707.8433333333334	0	n/a	424707	KeyDown	41324	3	Middle	35
707.9400000000001	0	n/a	424765	KeyDown	41324	2	Ring	35
708.2550000000000	0	n/a	424954	KeyDown	41324	4	Index	35
708.5133333333334	0	n/a	425109	KeyDown	41324	4	Index	35
708.7566666666667	0	n/a	425255	KeyDown	41324	1	Little	35
709.0316666666668	0	n/a	425420	KeyDown	41324	3	Middle	35
709.1683333333334	0	n/a	425502	KeyDown	41324	2	Ring	35
709.4366666666667	0	n/a	425663	KeyDown	41324	4	Index	35
709.7033333333334	0	n/a	425823	KeyDown	41324	4	Index	35
710.0016666666667	0	n/a	426002	KeyDown	41324	1	Little	35
710.2750000000001	0	n/a	426166	KeyDown	41324	3	Middle	35
710.4216666666667	0	n/a	426254	KeyDown	41324	2	Ring	35
710.7416666666667	0	n/a	426446	KeyDown	41324	4	Index	35
710.9900000000000	0	n/a	426595	KeyDown	41324	4	Index	35
711.2700000000001	0	n/a	426763	KeyDown	41324	1	Little	35
711.5583333333334	0	n/a	426936	KeyDown	41324	3	Middle	35
711.7250000000000	0	n/a	427036	KeyDown	41324	2	Ring	35
712.0600000000001	0	n/a	427237	KeyDown	41324	4	Index	35
712.2900000000001	0	n/a	427375	KeyDown	41324	4	Index	35
712.6100000000000	0	n/a	427567	KeyDown	41324	1	Little	35
713.0433333333334	0	n/a	427827	KeyDown	41324	3	Middle	35
713.2116666666667	0	n/a	427928	KeyDown	41324	2	Ring	35
713.6250000000000	0	n/a	428176	KeyDown	41324	4	Index	35
713.9583333333334	0	n/a	428376	KeyDown	41324	4	Index	35
714.3233333333334	0	n/a	428595	KeyDown	41324	1	Little	35
714.6850000000001	0	n/a	428812	KeyDown	41324	3	Middle	35
714.8200000000001	0	n/a	428893	KeyDown	41324	2	Ring	35
715.2450000000000	0	n/a	429148	KeyDown	41324	4	Index	35
715.6950000000001	0	n/a	429418	KeyDown	41324	4	Index	35
716.0850000000000	0	n/a	429652	KeyDown	41324	1	Little	35
716.2816666666668	0	n/a	429770	KeyDown	41324	3	Middle	35
716.5233333333334	0	n/a	429915	KeyDown	41324	2	Ring	35
716.8850000000000	0	n/a	430132	StopPractice	41324	n/a	n/a	35
716.8866666666667	0	n/a	430133	StartRest	XXXXX	n/a	n/a	35
726.9200000000001	0	n/a	436153	StopRest	XXXXX	n/a	n/a	35
726.9216666666667	0	UPPT001	436154	StartPractice	41324	n/a	n/a	36
727.4216666666667	0	n/a	436454	KeyDown	41324	4	Index	36
727.6750000000001	0	n/a	436606	KeyDown	41324	1	Little	36
727.8266666666667	0	n/a	436697	KeyDown	41324	3	Middle	36
727.9733333333334	0	n/a	436785	KeyDown	41324	2	Ring	36
728.3666666666667	0	n/a	437021	KeyDown	41324	4	Index	36
728.6283333333333	0	n/a	437178	KeyDown	41324	4	Index	36
728.8316666666667	0	n/a	437300	KeyDown	41324	1	Little	36
729.0200000000001	0	n/a	437413	KeyDown	41324	3	Middle	36
729.1300000000000	0	n/a	437479	KeyDown	41324	2	Ring	36
729.4233333333334	0	n/a	437655	KeyDown	41324	4	Index	36
729.6833333333334	0	n/a	437811	KeyDown	41324	4	Index	36
729.9250000000001	0	n/a	437956	KeyDown	41324	1	Little	36
730.1100000000000	0	n/a	438067	KeyDown	41324	3	Middle	36
730.2666666666668	0	n/a	438161	KeyDown	41324	2	Ring	36
730.6783333333334	0	n/a	438408	KeyDown	41324	4	Index	36
730.9533333333334	0	n/a	438573	KeyDown	41324	4	Index	36
731.2483333333333	0	n/a	438750	KeyDown	41324	1	Little	36
731.4416666666667	0	n/a	438866	KeyDown	41324	3	Middle	36
731.6016666666667	0	n/a	438962	KeyDown	41324	2	Ring	36
731.9500000000000	0	n/a	439171	KeyDown	41324	4	Index	36
732.2116666666667	0	n/a	439328	KeyDown	41324	4	Index	36
732.4633333333334	0	n/a	439479	KeyDown	41324	1	Little	36
732.6550000000001	0	n/a	439594	KeyDown	41324	3	Middle	36
732.8616666666667	0	n/a	439718	KeyDown	41324	2	Ring	36
733.1750000000001	0	n/a	439906	KeyDown	41324	4	Index	36
733.4300000000001	0	n/a	440059	KeyDown	41324	4	Index	36
733.6883333333334	0	n/a	440214	KeyDown	41324	1	Little	36
733.9433333333334	0	n/a	440367	KeyDown	41324	3	Middle	36
734.1283333333333	0	n/a	440478	KeyDown	41324	2	Ring	36
734.4816666666667	0	n/a	440690	KeyDown	41324	4	Index	36
734.7483333333333	0	n/a	440850	KeyDown	41324	4	Index	36
735.0333333333334	0	n/a	441021	KeyDown	41324	1	Little	36
735.2983333333334	0	n/a	441180	KeyDown	41324	3	Middle	36
735.5100000000000	0	n/a	441307	KeyDown	41324	2	Ring	36
735.8483333333334	0	n/a	441510	KeyDown	41324	1	Little	36
736.3733333333333	0	n/a	441825	KeyDown	41324	4	Index	36
736.6383333333334	0	n/a	441984	KeyDown	41324	4	Index	36
736.9600000000000	0	n/a	442177	StopPractice	41324	n/a	n/a	36
736.9616666666667	0	n/a	442178	StartRest	XXXXX	n/a	n/a	36
746.9966666666667	0	n/a	448199	StopRest	XXXXX	n/a	n/a	36
