onset	duration	channel	onset_sample_idx	event_type	target_sequence	keypress_id	finger_label	trial_number
11.0483333333333	0	UPPT001	6630	StartPractice	41324	n/a	n/a	1
12.9400000000000	0	n/a	7765	KeyDown	41324	4	Index	1
14.2416666666667	0	n/a	8546	KeyDown	41324	1	Little	1
15.3266666666667	0	n/a	9197	KeyDown	41324	2	Ring	1
15.7816666666667	0	n/a	9470	KeyDown	41324	2	Ring	1
17.2366666666667	0	n/a	10343	KeyDown	41324	4	Index	1
21.0866666666667	0	n/a	12653	StopPractice	41324	n/a	n/a	1
21.0883333333333	0	n/a	12654	StartRest	XXXXX	n/a	n/a	1
31.1900000000000	0	n/a	18715	StopRest	XXXXX	n/a	n/a	1
31.1916666666667	0	UPPT001	18716	StartPractice	41324	n/a	n/a	2
32.9116666666667	0	n/a	19748	KeyDown	41324	4	Index	2
33.7633333333333	0	n/a	20259	KeyDown	41324	1	Little	2
35.9016666666667	0	n/a	21542	KeyDown	41324	3	Middle	2
37.0433333333333	0	n/a	22227	KeyDown	41324	2	Ring	2
37.4833333333333	0	n/a	22491	KeyDown	41324	4	Index	2
38.6350000000000	0	n/a	23182	KeyDown	41324	4	Index	2
39.2016666666667	0	n/a	23522	KeyDown	41324	1	Little	2
40.2483333333333	0	n/a	24150	KeyDown	41324	3	Middle	2
40.8050000000000	0	n/a	24484	KeyDown	41324	2	Ring	2
41.1400000000000	0	n/a	24685	KeyDown	41324	4	Index	2
41.2300000000000	0	n/a	24739	StopPractice	41324	n/a	n/a	2
41.2316666666667	0	n/a	24740	StartRest	XXXXX	n/a	n/a	2
51.2650000000000	0	n/a	30760	StopRest	XXXXX	n/a	n/a	2
51.2666666666667	0	UPPT001	30761	StartPractice	41324	n/a	n/a	3
52.5283333333333	0	n/a	31518	KeyDown	41324	4	Index	3
53.3100000000000	0	n/a	31987	KeyDown	41324	1	Little	3
53.9083333333333	0	n/a	32346	KeyDown	41324	3	Middle	3
54.5250000000000	0	n/a	32716	KeyDown	41324	2	Ring	3
55.0283333333333	0	n/a	33018	KeyDown	41324	4	Index	3
56.1033333333333	0	n/a	33663	KeyDown	41324	4	Index	3
56.6966666666667	0	n/a	34019	KeyDown	41324	1	Little	3
57.6550000000000	0	n/a	34594	KeyDown	41324	3	Middle	3
58.5450000000000	0	n/a	35128	KeyDown	41324	2	Ring	3
58.9883333333333	0	n/a	35394	KeyDown	41324	4	Index	3
59.9516666666667	0	n/a	35972	KeyDown	41324	4	Index	3
60.5333333333333	0	n/a	36321	KeyDown	41324	1	Little	3
61.3050000000000	0	n/a	36784	StopPractice	41324	n/a	n/a	3
61.3066666666667	0	n/a	36785	StartRest	XXXXX	n/a	n/a	3
71.3383333333333	0	n/a	42804	StopRest	XXXXX	n/a	n/a	3
71.3400000000000	0	UPPT001	42805	StartPractice	41324	n/a	n/a	4
72.3533333333333	0	n/a	43413	KeyDown	41324	4	Index	4
72.8633333333333	0	n/a	43719	KeyDown	41324	1	Little	4
74.3166666666667	0	n/a	44591	KeyDown	41324	3	Middle	4
74.9183333333333	0	n/a	44952	KeyDown	41324	2	Ring	4
75.6350000000000	0	n/a	45382	KeyDown	41324	4	Index	4
76.7883333333333	0	n/a	46074	KeyDown	41324	4	Index	4
77.2850000000000	0	n/a	46372	KeyDown	41324	1	Little	4
78.4266666666667	0	n/a	47057	KeyDown	41324	3	Middle	4
79.4316666666667	0	n/a	47660	KeyDown	41324	2	Ring	4
79.9533333333333	0	n/a	47973	KeyDown	41324	4	Index	4
80.7666666666667	0	n/a	48461	KeyDown	41324	4	Index	4
81.1783333333333	0	n/a	48708	KeyDown	41324	1	Little	4
81.3783333333333	0	n/a	48828	StopPractice	41324	n/a	n/a	4
81.3800000000000	0	n/a	48829	StartRest	XXXXX	n/a	n/a	4
91.4150000000000	0	n/a	54850	StopRest	XXXXX	n/a	n/a	4
91.4166666666667	0	UPPT001	54851	StartPractice	41324	n/a	n/a	5
92.2350000000000	0	n/a	55342	KeyDown	41324	4	Index	5
92.7300000000000	0	n/a	55639	KeyDown	41324	1	Little	5
93.2350000000000	0	n/a	55942	KeyDown	41324	3	Middle	5
93.6516666666667	0	n/a	56192	KeyDown	41324	2	Ring	5
93.9683333333333	0	n/a	56382	KeyDown	41324	4	Index	5
94.6183333333333	0	n/a	56772	KeyDown	41324	4	Index	5
95.0950000000000	0	n/a	57058	KeyDown	41324	1	Little	5
95.8850000000000	0	n/a	57532	KeyDown	41324	3	Middle	5
96.3766666666667	0	n/a	57827	KeyDown	41324	2	Ring	5
96.7350000000000	0	n/a	58042	KeyDown	41324	4	Index	5
97.6800000000000	0	n/a	58609	KeyDown	41324	4	Index	5
98.1716666666667	0	n/a	58904	KeyDown	41324	1	Little	5
98.8833333333333	0	n/a	59331	KeyDown	41324	3	Middle	5
99.3683333333333	0	n/a	59622	KeyDown	41324	2	Ring	5
99.7533333333333	0	n/a	59853	KeyDown	41324	4	Index	5
100.3133333333333	0	n/a	60189	KeyDown	41324	4	Index	5
100.6733333333333	0	n/a	60405	KeyDown	41324	1	Little	5
101.4550000000000	0	n/a	60874	StopPractice	41324	n/a	n/a	5
101.4566666666667	0	n/a	60875	StartRest	XXXXX	n/a	n/a	5
111.4883333333333	0	n/a	66894	StopRest	XXXXX	n/a	n/a	5
111.4900000000000	0	UPPT001	66895	StartPractice	41324	n/a	n/a	6
112.1950000000000	0	n/a	67318	KeyDown	41324	4	Index	6
112.6100000000000	0	n/a	67567	KeyDown	41324	1	Little	6
113.0233333333333	0	n/a	67815	KeyDown	41324	3	Middle	6
113.4216666666667	0	n/a	68054	KeyDown	41324	2	Ring	6
113.7666666666667	0	n/a	68261	KeyDown	41324	4	Index	6
114.5583333333333	0	n/a	68736	KeyDown	41324	4	Index	6
115.2983333333333	0	n/a	69180	KeyDown	41324	1	Little	6
115.7883333333333	0	n/a	69474	KeyDown	41324	3	Middle	6
116.2233333333333	0	n/a	69735	KeyDown	41324	2	Ring	6
116.6800000000000	0	n/a	70009	KeyDown	41324	4	Index	6
117.3616666666667	0	n/a	70418	KeyDown	41324	4	Index	6
117.7116666666667	0	n/a	70628	KeyDown	41324	1	Little	6
117.9633333333333	0	n/a	70779	KeyDown	41324	3	Middle	6
118.7583333333333	0	n/a	71256	KeyDown	41324	2	Ring	6
119.1083333333333	0	n/a	71466	KeyDown	41324	4	Index	6
119.6966666666667	0	n/a	71819	KeyDown	41324	4	Index	6
120.0616666666667	0	n/a	72038	KeyDown	41324	1	Little	6
121.2550000000000	0	n/a	72754	KeyDown	41324	3	Middle	6
121.5283333333333	0	n/a	72918	StopPractice	41324	n/a	n/a	6
121.5300000000000	0	n/a	72919	StartRest	XXXXX	n/a	n/a	6
131.5633333333333	0	n/a	78939	StopRest	XXXXX	n/a	n/a	6
131.5650000000000	0	UPPT001	78940	StartPractice	41324	n/a	n/a	7
132.1283333333333	0	n/a	79278	KeyDown	41324	4	Index	7
132.5716666666667	0	n/a	79544	KeyDown	41324	1	Little	7
133.0033333333333	0	n/a	79803	KeyDown	41324	3	Middle	7
133.3533333333334	0	n/a	80013	KeyDown	41324	2	Ring	7
133.6383333333333	0	n/a	80184	KeyDown	41324	4	Index	7
134.0033333333333	0	n/a	80403	KeyDown	41324	4	Index	7
134.3866666666667	0	n/a	80633	KeyDown	41324	1	Little	7
134.9983333333333	0	n/a	81000	KeyDown	41324	3	Middle	7
135.4166666666667	0	n/a	81251	KeyDown	41324	2	Ring	7
135.7700000000000	0	n/a	81463	KeyDown	41324	4	Index	7
136.1466666666667	0	n/a	81689	KeyDown	41324	4	Index	7
136.4550000000000	0	n/a	81874	KeyDown	41324	1	Little	7
137.2016666666667	0	n/a	82322	KeyDown	41324	3	Middle	7
137.5233333333333	0	n/a	82515	KeyDown	41324	2	Ring	7
137.8833333333334	0	n/a	82731	KeyDown	41324	4	Index	7
138.3716666666667	0	n/a	83024	KeyDown	41324	4	Index	7
138.7266666666667	0	n/a	83237	KeyDown	41324	1	Little	7
139.4366666666667	0	n/a	83663	KeyDown	41324	3	Middle	7
140.0283333333333	0	n/a	84018	KeyDown	41324	2	Ring	7
140.5333333333333	0	n/a	84321	KeyDown	41324	4	Index	7
141.0833333333333	0	n/a	84651	KeyDown	41324	4	Index	7
141.5516666666667	0	n/a	84932	KeyDown	41324	1	Little	7
141.6033333333334	0	n/a	84963	StopPractice	41324	n/a	n/a	7
141.6050000000000	0	n/a	84964	StartRest	XXXXX	n/a	n/a	7
151.6383333333333	0	n/a	90984	StopRest	XXXXX	n/a	n/a	7
151.6400000000000	0	UPPT001	90985	StartPractice	41324	n/a	n/a	8
152.2316666666667	0	n/a	91340	KeyDown	41324	4	Index	8
152.6333333333334	0	n/a	91581	KeyDown	41324	1	Little	8
153.0900000000000	0	n/a	91855	KeyDown	41324	3	Middle	8
153.5966666666667	0	n/a	92159	KeyDown	41324	2	Ring	8
153.9333333333333	0	n/a	92361	KeyDown	41324	4	Index	8
154.3300000000000	0	n/a	92599	KeyDown	41324	4	Index	8
154.5683333333334	0	n/a	92742	KeyDown	41324	1	Little	8
155.1216666666667	0	n/a	93074	KeyDown	41324	3	Middle	8
155.4933333333333	0	n/a	93297	KeyDown	41324	2	Ring	8
155.8066666666667	0	n/a	93485	KeyDown	41324	4	Index	8
156.4133333333334	0	n/a	93849	KeyDown	41324	4	Index	8
156.8966666666667	0	n/a	94139	KeyDown	41324	1	Little	8
157.4766666666667	0	n/a	94487	KeyDown	41324	3	Middle	8
157.8950000000000	0	n/a	94738	KeyDown	41324	2	Ring	8
158.2216666666667	0	n/a	94934	KeyDown	41324	4	Index	8
158.6866666666667	0	n/a	95213	KeyDown	41324	4	Index	8
159.0500000000000	0	n/a	95431	KeyDown	41324	1	Little	8
159.6616666666667	0	n/a	95798	KeyDown	41324	3	Middle	8
160.3433333333333	0	n/a	96207	KeyDown	41324	2	Ring	8
160.8216666666667	0	n/a	96494	KeyDown	41324	4	Index	8
161.2183333333333	0	n/a	96732	KeyDown	41324	4	Index	8
161.5600000000000	0	n/a	96937	KeyDown	41324	1	Little	8
161.6783333333333	0	n/a	97008	StopPractice	41324	n/a	n/a	8
161.6800000000000	0	n/a	97009	StartRest	XXXXX	n/a	n/a	8
171.7133333333333	0	n/a	103029	StopRest	XXXXX	n/a	n/a	8
171.7150000000000	0	UPPT001	103030	StartPractice	41324	n/a	n/a	9
172.2116666666667	0	n/a	103328	KeyDown	41324	4	Index	9
172.5616666666667	0	n/a	103538	KeyDown	41324	1	Little	9
173.0150000000000	0	n/a	103810	KeyDown	41324	3	Middle	9
173.3583333333333	0	n/a	104016	KeyDown	41324	2	Ring	9
173.6866666666667	0	n/a	104213	KeyDown	41324	4	Index	9
174.0733333333334	0	n/a	104445	KeyDown	41324	4	Index	9
174.3650000000000	0	n/a	104620	KeyDown	41324	1	Little	9
174.8416666666667	0	n/a	104906	KeyDown	41324	3	Middle	9
175.1283333333334	0	n/a	105078	KeyDown	41324	2	Ring	9
175.4366666666667	0	n/a	105263	KeyDown	41324	4	Index	9
175.8266666666667	0	n/a	105497	KeyDown	41324	4	Index	9
176.1533333333333	0	n/a	105693	KeyDown	41324	1	Little	9
176.6616666666667	0	n/a	105998	KeyDown	41324	3	Middle	9
177.1283333333334	0	n/a	106278	KeyDown	41324	2	Ring	9
177.6666666666667	0	n/a	106601	KeyDown	41324	4	Index	9
178.0500000000000	0	n/a	106831	KeyDown	41324	4	Index	9
178.5733333333334	0	n/a	107145	KeyDown	41324	1	Little	9
179.0850000000000	0	n/a	107452	KeyDown	41324	3	Middle	9
179.6016666666667	0	n/a	107762	KeyDown	41324	2	Ring	9
180.1866666666667	0	n/a	108113	KeyDown	41324	4	Index	9
180.8966666666667	0	n/a	108539	KeyDown	41324	1	Little	9
181.7533333333334	0	n/a	109053	StopPractice	41324	n/a	n/a	9
181.7550000000000	0	n/a	109054	StartRest	XXXXX	n/a	n/a	9
191.7883333333334	0	n/a	115074	StopRest	XXXXX	n/a	n/a	9
191.7900000000000	0	UPPT001	115075	StartPractice	41324	n/a	n/a	10
192.3800000000000	0	n/a	115429	KeyDown	41324	4	Index	10
192.7733333333333	0	n/a	115665	KeyDown	41324	1	Little	10
193.1966666666667	0	n/a	115919	KeyDown	41324	3	Middle	10
193.5966666666667	0	n/a	116159	KeyDown	41324	2	Ring	10
194.0183333333333	0	n/a	116412	KeyDown	41324	4	Index	10
194.4700000000000	0	n/a	116683	KeyDown	41324	4	Index	10
194.8450000000000	0	n/a	116908	KeyDown	41324	1	Little	10
195.3150000000000	0	n/a	117190	KeyDown	41324	3	Middle	10
195.6200000000000	0	n/a	117373	KeyDown	41324	2	Ring	10
195.9916666666667	0	n/a	117596	KeyDown	41324	4	Index	10
196.3416666666667	0	n/a	117806	KeyDown	41324	4	Index	10
196.6033333333334	0	n/a	117963	KeyDown	41324	1	Little	10
197.0016666666667	0	n/a	118202	KeyDown	41324	3	Middle	10
197.3133333333333	0	n/a	118389	KeyDown	41324	2	Ring	10
197.6366666666667	0	n/a	118583	KeyDown	41324	4	Index	10
198.1116666666667	0	n/a	118868	KeyDown	41324	4	Index	10
198.4083333333334	0	n/a	119046	KeyDown	41324	1	Little	10
198.9033333333333	0	n/a	119343	KeyDown	41324	3	Middle	10
199.2733333333333	0	n/a	119565	KeyDown	41324	2	Ring	10
199.7216666666667	0	n/a	119834	KeyDown	41324	4	Index	10
200.0616666666667	0	n/a	120038	KeyDown	41324	4	Index	10
200.3083333333333	0	n/a	120186	KeyDown	41324	1	Little	10
200.7933333333334	0	n/a	120477	KeyDown	41324	3	Middle	10
201.0116666666667	0	n/a	120608	KeyDown	41324	2	Ring	10
201.4333333333333	0	n/a	120861	KeyDown	41324	4	Index	10
201.8283333333333	0	n/a	121098	StopPractice	41324	n/a	n/a	10
201.8300000000000	0	n/a	121099	StartRest	XXXXX	n/a	n/a	10
211.8633333333333	0	n/a	127119	StopRest	XXXXX	n/a	n/a	10
211.8650000000000	0	UPPT001	127120	StartPractice	41324	n/a	n/a	11
212.4583333333333	0	n/a	127476	KeyDown	41324	4	Index	11
212.7833333333334	0	n/a	127671	KeyDown	41324	1	Little	11
213.1066666666667	0	n/a	127865	KeyDown	41324	3	Middle	11
213.4616666666667	0	n/a	128078	KeyDown	41324	2	Ring	11
213.7683333333333	0	n/a	128262	KeyDown	41324	4	Index	11
214.0783333333333	0	n/a	128448	KeyDown	41324	4	Index	11
214.3566666666667	0	n/a	128615	KeyDown	41324	1	Little	11
214.7983333333333	0	n/a	128880	KeyDown	41324	3	Middle	11
215.1016666666667	0	n/a	129062	KeyDown	41324	2	Ring	11
215.5050000000000	0	n/a	129304	KeyDown	41324	4	Index	11
215.8700000000000	0	n/a	129523	KeyDown	41324	4	Index	11
216.1433333333333	0	n/a	129687	KeyDown	41324	1	Little	11
217.0133333333333	0	n/a	130209	KeyDown	41324	3	Middle	11
217.3216666666667	0	n/a	130394	KeyDown	41324	2	Ring	11
217.6733333333333	0	n/a	130605	KeyDown	41324	4	Index	11
218.0416666666667	0	n/a	130826	KeyDown	41324	4	Index	11
218.3800000000000	0	n/a	131029	KeyDown	41324	1	Little	11
218.8033333333333	0	n/a	131283	KeyDown	41324	3	Middle	11
219.1266666666667	0	n/a	131477	KeyDown	41324	2	Ring	11
219.5216666666667	0	n/a	131714	KeyDown	41324	4	Index	11
219.9016666666667	0	n/a	131942	KeyDown	41324	4	Index	11
220.1966666666667	0	n/a	132119	KeyDown	41324	1	Little	11
220.5550000000000	0	n/a	132334	KeyDown	41324	3	Middle	11
220.8766666666667	0	n/a	132527	KeyDown	41324	2	Ring	11
221.3883333333333	0	n/a	132834	KeyDown	41324	4	Index	11
221.7900000000000	0	n/a	133075	KeyDown	41324	4	Index	11
221.9033333333333	0	n/a	133143	StopPractice	41324	n/a	n/a	11
221.9050000000000	0	n/a	133144	StartRest	XXXXX	n/a	n/a	11
231.9383333333334	0	n/a	139164	StopRest	XXXXX	n/a	n/a	11
231.9400000000000	0	UPPT001	139165	StartPractice	41324	n/a	n/a	12
232.4983333333333	0	n/a	139500	KeyDown	41324	4	Index	12
232.7766666666667	0	n/a	139667	KeyDown	41324	1	Little	12
233.1216666666667	0	n/a	139874	KeyDown	41324	3	Middle	12
233.6016666666667	0	n/a	140162	KeyDown	41324	2	Ring	12
234.0150000000000	0	n/a	140410	KeyDown	41324	4	Index	12
234.4000000000000	0	n/a	140641	KeyDown	41324	4	Index	12
234.6816666666667	0	n/a	140810	KeyDown	41324	1	Little	12
235.0433333333334	0	n/a	141027	KeyDown	41324	3	Middle	12
235.4333333333333	0	n/a	141261	KeyDown	41324	2	Ring	12
235.7433333333333	0	n/a	141447	KeyDown	41324	4	Index	12
236.0733333333334	0	n/a	141645	KeyDown	41324	4	Index	12
236.3416666666667	0	n/a	141806	KeyDown	41324	1	Little	12
236.8833333333334	0	n/a	142131	KeyDown	41324	3	Middle	12
237.1783333333333	0	n/a	142308	KeyDown	41324	2	Ring	12
238.0133333333333	0	n/a	142809	KeyDown	41324	4	Index	12
238.8016666666667	0	n/a	143282	KeyDown	41324	4	Index	12
239.1383333333333	0	n/a	143484	KeyDown	41324	1	Little	12
239.5516666666667	0	n/a	143732	KeyDown	41324	3	Middle	12
239.8850000000000	0	n/a	143932	KeyDown	41324	2	Ring	12
240.6200000000000	0	n/a	144373	KeyDown	41324	4	Index	12
241.0600000000000	0	n/a	144637	KeyDown	41324	4	Index	12
241.3350000000000	0	n/a	144802	KeyDown	41324	1	Little	12
241.9033333333333	0	n/a	145143	KeyDown	41324	3	Middle	12
241.9783333333334	0	n/a	145188	StopPractice	41324	n/a	n/a	12
241.9800000000000	0	n/a	145189	StartRest	XXXXX	n/a	n/a	12
252.0133333333333	0	n/a	151209	StopRest	XXXXX	n/a	n/a	12
252.0150000000000	0	UPPT001	151210	StartPractice	41324	n/a	n/a	13
252.6566666666667	0	n/a	151595	KeyDown	41324	4	Index	13
253.0500000000000	0	n/a	151831	KeyDown	41324	1	Little	13
253.5333333333334	0	n/a	152121	KeyDown	41324	3	Middle	13
253.8883333333333	0	n/a	152334	KeyDown	41324	2	Ring	13
254.2783333333333	0	n/a	152568	KeyDown	41324	4	Index	13
254.6433333333333	0	n/a	152787	KeyDown	41324	4	Index	13
254.9666666666667	0	n/a	152981	KeyDown	41324	1	Little	13
255.3833333333334	0	n/a	153231	KeyDown	41324	3	Middle	13
255.6266666666667	0	n/a	153377	KeyDown	41324	2	Ring	13
255.9466666666667	0	n/a	153569	KeyDown	41324	4	Index	13
256.2450000000000	0	n/a	153748	KeyDown	41324	4	Index	13
256.5283333333334	0	n/a	153918	KeyDown	41324	1	Little	13
256.9683333333334	0	n/a	154182	KeyDown	41324	3	Middle	13
257.3066666666667	0	n/a	154385	KeyDown	41324	2	Ring	13
257.7916666666667	0	n/a	154676	KeyDown	41324	4	Index	13
258.1966666666667	0	n/a	154919	KeyDown	41324	4	Index	13
258.4783333333334	0	n/a	155088	KeyDown	41324	1	Little	13
258.9133333333334	0	n/a	155349	KeyDown	41324	3	Middle	13
259.2366666666667	0	n/a	155543	KeyDown	41324	2	Ring	13
259.6633333333334	0	n/a	155799	KeyDown	41324	4	Index	13
260.0233333333334	0	n/a	156015	KeyDown	41324	4	Index	13
260.3066666666667	0	n/a	156185	KeyDown	41324	1	Little	13
260.7133333333334	0	n/a	156429	KeyDown	41324	3	Middle	13
261.0333333333334	0	n/a	156621	KeyDown	41324	2	Ring	13
261.5166666666667	0	n/a	156911	KeyDown	41324	4	Index	13
261.8216666666667	0	n/a	157094	KeyDown	41324	4	Index	13
262.0533333333333	0	n/a	157233	StopPractice	41324	n/a	n/a	13
262.0550000000000	0	n/a	157234	StartRest	XXXXX	n/a	n/a	13
272.0883333333334	0	n/a	163254	StopRest	XXXXX	n/a	n/a	13
272.0900000000000	0	UPPT001	163255	StartPractice	41324	n/a	n/a	14
272.6533333333334	0	n/a	163593	KeyDown	41324	4	Index	14
272.9716666666667	0	n/a	163784	KeyDown	41324	1	Little	14
273.9883333333333	0	n/a	164394	KeyDown	41324	3	Middle	14
274.3683333333333	0	n/a	164622	KeyDown	41324	2	Ring	14
274.7083333333334	0	n/a	164826	KeyDown	41324	4	Index	14
275.1133333333333	0	n/a	165069	KeyDown	41324	4	Index	14
275.5616666666667	0	n/a	165338	KeyDown	41324	1	Little	14
276.1883333333333	0	n/a	165714	KeyDown	41324	3	Middle	14
276.4550000000000	0	n/a	165874	KeyDown	41324	2	Ring	14
276.7150000000000	0	n/a	166030	KeyDown	41324	4	Index	14
277.0466666666667	0	n/a	166229	KeyDown	41324	4	Index	14
277.3433333333334	0	n/a	166407	KeyDown	41324	1	Little	14
277.8266666666667	0	n/a	166697	KeyDown	41324	3	Middle	14
278.1150000000000	0	n/a	166870	KeyDown	41324	2	Ring	14
278.4833333333333	0	n/a	167091	KeyDown	41324	4	Index	14
278.7966666666667	0	n/a	167279	KeyDown	41324	4	Index	14
279.0616666666667	0	n/a	167438	KeyDown	41324	1	Little	14
279.4183333333334	0	n/a	167652	KeyDown	41324	3	Middle	14
279.7183333333334	0	n/a	167832	KeyDown	41324	2	Ring	14
280.0133333333334	0	n/a	168009	KeyDown	41324	4	Index	14
280.5516666666667	0	n/a	168332	KeyDown	41324	4	Index	14
280.7933333333334	0	n/a	168477	KeyDown	41324	1	Little	14
281.2783333333334	0	n/a	168768	KeyDown	41324	3	Middle	14
281.5400000000000	0	n/a	168925	KeyDown	41324	2	Ring	14
281.7616666666667	0	n/a	169058	KeyDown	41324	3	Middle	14
282.1283333333333	0	n/a	169278	StopPractice	41324	n/a	n/a	14
282.1300000000000	0	n/a	169279	StartRest	XXXXX	n/a	n/a	14
292.1616666666667	0	n/a	175298	StopRest	XXXXX	n/a	n/a	14
292.1633333333334	0	UPPT001	175299	StartPractice	41324	n/a	n/a	15
293.2783333333334	0	n/a	175968	KeyDown	41324	4	Index	15
293.6316666666667	0	n/a	176180	KeyDown	41324	1	Little	15
294.0483333333333	0	n/a	176430	KeyDown	41324	3	Middle	15
294.9416666666667	0	n/a	176966	KeyDown	41324	2	Ring	15
295.2500000000000	0	n/a	177151	KeyDown	41324	4	Index	15
295.6000000000000	0	n/a	177361	KeyDown	41324	4	Index	15
295.7916666666667	0	n/a	177476	KeyDown	41324	1	Little	15
296.2650000000000	0	n/a	177760	KeyDown	41324	3	Middle	15
296.5400000000000	0	n/a	177925	KeyDown	41324	2	Ring	15
296.9233333333333	0	n/a	178155	KeyDown	41324	4	Index	15
297.2433333333333	0	n/a	178347	KeyDown	41324	4	Index	15
297.5550000000000	0	n/a	178534	KeyDown	41324	1	Little	15
297.9033333333334	0	n/a	178743	KeyDown	41324	3	Middle	15
298.2000000000000	0	n/a	178921	KeyDown	41324	2	Ring	15
298.6933333333333	0	n/a	179217	KeyDown	41324	4	Index	15
298.9833333333333	0	n/a	179391	KeyDown	41324	4	Index	15
299.2400000000000	0	n/a	179545	KeyDown	41324	1	Little	15
299.7650000000000	0	n/a	179860	KeyDown	41324	3	Middle	15
300.0650000000000	0	n/a	180040	KeyDown	41324	2	Ring	15
300.7333333333333	0	n/a	180441	KeyDown	41324	4	Index	15
301.1316666666667	0	n/a	180680	KeyDown	41324	4	Index	15
301.4416666666667	0	n/a	180866	KeyDown	41324	1	Little	15
302.2016666666667	0	n/a	181322	StopPractice	41324	n/a	n/a	15
302.2033333333334	0	n/a	181323	StartRest	XXXXX	n/a	n/a	15
312.2366666666667	0	n/a	187343	StopRest	XXXXX	n/a	n/a	15
312.2383333333333	0	UPPT001	187344	StartPractice	41324	n/a	n/a	16
312.9466666666667	0	n/a	187769	KeyDown	41324	4	Index	16
313.1966666666667	0	n/a	187919	KeyDown	41324	1	Little	16
313.5333333333334	0	n/a	188121	KeyDown	41324	3	Middle	16
313.8016666666667	0	n/a	188282	KeyDown	41324	2	Ring	16
314.0900000000000	0	n/a	188455	KeyDown	41324	4	Index	16
314.3900000000000	0	n/a	188635	KeyDown	41324	4	Index	16
314.6433333333334	0	n/a	188787	KeyDown	41324	1	Little	16
315.0300000000000	0	n/a	189019	KeyDown	41324	3	Middle	16
315.2616666666667	0	n/a	189158	KeyDown	41324	2	Ring	16
315.6633333333334	0	n/a	189399	KeyDown	41324	4	Index	16
316.0650000000000	0	n/a	189640	KeyDown	41324	4	Index	16
316.3516666666667	0	n/a	189812	KeyDown	41324	1	Little	16
316.7800000000000	0	n/a	190069	KeyDown	41324	3	Middle	16
317.0650000000000	0	n/a	190240	KeyDown	41324	2	Ring	16
317.5366666666667	0	n/a	190523	KeyDown	41324	4	Index	16
317.8666666666667	0	n/a	190721	KeyDown	41324	4	Index	16
318.1366666666667	0	n/a	190883	KeyDown	41324	1	Little	16
318.5000000000000	0	n/a	191101	KeyDown	41324	3	Middle	16
318.7666666666667	0	n/a	191261	KeyDown	41324	2	Ring	16
319.1366666666667	0	n/a	191483	KeyDown	41324	4	Index	16
319.5366666666667	0	n/a	191723	KeyDown	41324	4	Index	16
319.9916666666667	0	n/a	191996	KeyDown	41324	1	Little	16
320.4150000000000	0	n/a	192250	KeyDown	41324	3	Middle	16
320.7166666666667	0	n/a	192431	KeyDown	41324	2	Ring	16
321.2600000000000	0	n/a	192757	KeyDown	41324	4	Index	16
322.1400000000000	0	n/a	193285	KeyDown	41324	1	Little	16
322.2766666666667	0	n/a	193367	StopPractice	41324	n/a	n/a	16
322.2783333333334	0	n/a	193368	StartRest	XXXXX	n/a	n/a	16
332.3116666666667	0	n/a	199388	StopRest	XXXXX	n/a	n/a	16
332.3133333333333	0	UPPT001	199389	StartPractice	41324	n/a	n/a	17
333.2500000000000	0	n/a	199951	KeyDown	41324	4	Index	17
333.6800000000000	0	n/a	200209	KeyDown	41324	1	Little	17
334.0566666666667	0	n/a	200435	KeyDown	41324	3	Middle	17
334.3683333333333	0	n/a	200622	KeyDown	41324	2	Ring	17
334.6916666666667	0	n/a	200816	KeyDown	41324	4	Index	17
334.9916666666667	0	n/a	200996	KeyDown	41324	4	Index	17
335.3066666666667	0	n/a	201185	KeyDown	41324	1	Little	17
335.6833333333333	0	n/a	201411	KeyDown	41324	3	Middle	17
335.9950000000000	0	n/a	201598	KeyDown	41324	2	Ring	17
336.3566666666667	0	n/a	201815	KeyDown	41324	4	Index	17
336.6933333333333	0	n/a	202017	KeyDown	41324	4	Index	17
337.0300000000000	0	n/a	202219	KeyDown	41324	1	Little	17
337.3933333333334	0	n/a	202437	KeyDown	41324	3	Middle	17
337.7000000000000	0	n/a	202621	KeyDown	41324	2	Ring	17
337.9950000000000	0	n/a	202798	KeyDown	41324	4	Index	17
338.3416666666667	0	n/a	203006	KeyDown	41324	4	Index	17
338.6483333333334	0	n/a	203190	KeyDown	41324	1	Little	17
339.1633333333334	0	n/a	203499	KeyDown	41324	3	Middle	17
339.6200000000000	0	n/a	203773	KeyDown	41324	2	Ring	17
339.9500000000000	0	n/a	203971	KeyDown	41324	4	Index	17
340.2333333333333	0	n/a	204141	KeyDown	41324	4	Index	17
340.5150000000000	0	n/a	204310	KeyDown	41324	1	Little	17
340.8683333333333	0	n/a	204522	KeyDown	41324	3	Middle	17
341.1583333333334	0	n/a	204696	KeyDown	41324	2	Ring	17
341.4583333333334	0	n/a	204876	KeyDown	41324	4	Index	17
341.8550000000000	0	n/a	205114	KeyDown	41324	4	Index	17
342.1400000000000	0	n/a	205285	KeyDown	41324	1	Little	17
342.3516666666667	0	n/a	205412	StopPractice	41324	n/a	n/a	17
342.3533333333334	0	n/a	205413	StartRest	XXXXX	n/a	n/a	17
352.3866666666667	0	n/a	211433	StopRest	XXXXX	n/a	n/a	17
352.3883333333334	0	UPPT001	211434	StartPractice	41324	n/a	n/a	18
352.9533333333334	0	n/a	211773	KeyDown	41324	4	Index	18
353.1800000000000	0	n/a	211909	KeyDown	41324	1	Little	18
353.6416666666667	0	n/a	212186	KeyDown	41324	3	Middle	18
353.9250000000000	0	n/a	212356	KeyDown	41324	2	Ring	18
354.1816666666667	0	n/a	212510	KeyDown	41324	4	Index	18
354.4566666666667	0	n/a	212675	KeyDown	41324	4	Index	18
354.7150000000000	0	n/a	212830	KeyDown	41324	1	Little	18
355.0083333333334	0	n/a	213006	KeyDown	41324	3	Middle	18
355.2650000000000	0	n/a	213160	KeyDown	41324	2	Ring	18
355.5400000000000	0	n/a	213325	KeyDown	41324	4	Index	18
355.9633333333334	0	n/a	213579	KeyDown	41324	4	Index	18
356.2716666666667	0	n/a	213764	KeyDown	41324	1	Little	18
356.6233333333333	0	n/a	213975	KeyDown	41324	3	Middle	18
356.8750000000000	0	n/a	214126	KeyDown	41324	2	Ring	18
357.1666666666667	0	n/a	214301	KeyDown	41324	4	Index	18
357.4783333333334	0	n/a	214488	KeyDown	41324	4	Index	18
357.8133333333333	0	n/a	214689	KeyDown	41324	1	Little	18
358.1716666666667	0	n/a	214904	KeyDown	41324	3	Middle	18
358.5066666666667	0	n/a	215105	KeyDown	41324	2	Ring	18
358.8550000000000	0	n/a	215314	KeyDown	41324	4	Index	18
359.1616666666667	0	n/a	215498	KeyDown	41324	4	Index	18
359.4550000000000	0	n/a	215674	KeyDown	41324	1	Little	18
359.7966666666667	0	n/a	215879	KeyDown	41324	3	Middle	18
360.0616666666667	0	n/a	216038	KeyDown	41324	2	Ring	18
360.4450000000001	0	n/a	216268	KeyDown	41324	4	Index	18
360.8166666666667	0	n/a	216491	KeyDown	41324	4	Index	18
361.0833333333334	0	n/a	216651	KeyDown	41324	1	Little	18
361.4300000000000	0	n/a	216859	KeyDown	41324	3	Middle	18
361.7116666666667	0	n/a	217028	KeyDown	41324	2	Ring	18
362.0400000000000	0	n/a	217225	KeyDown	41324	4	Index	18
362.4266666666667	0	n/a	217457	StopPractice	41324	n/a	n/a	18
362.4283333333333	0	n/a	217458	StartRest	XXXXX	n/a	n/a	18
372.4616666666667	0	n/a	223478	StopRest	XXXXX	n/a	n/a	18
372.4633333333334	0	UPPT001	223479	StartPractice	41324	n/a	n/a	19
373.1266666666667	0	n/a	223877	KeyDown	41324	4	Index	19
373.4216666666667	0	n/a	224054	KeyDown	41324	1	Little	19
373.8033333333333	0	n/a	224283	KeyDown	41324	3	Middle	19
375.2016666666667	0	n/a	225122	KeyDown	41324	2	Ring	19
375.4950000000000	0	n/a	225298	KeyDown	41324	4	Index	19
375.8600000000000	0	n/a	225517	KeyDown	41324	4	Index	19
376.1133333333333	0	n/a	225669	KeyDown	41324	1	Little	19
376.4783333333334	0	n/a	225888	KeyDown	41324	3	Middle	19
376.7200000000000	0	n/a	226033	KeyDown	41324	2	Ring	19
377.0150000000000	0	n/a	226210	KeyDown	41324	4	Index	19
377.3400000000000	0	n/a	226405	KeyDown	41324	4	Index	19
377.7033333333334	0	n/a	226623	KeyDown	41324	1	Little	19
378.1400000000000	0	n/a	226885	KeyDown	41324	2	Ring	19
379.5500000000000	0	n/a	227731	KeyDown	41324	3	Middle	19
380.3083333333333	0	n/a	228186	KeyDown	41324	4	Index	19
380.9116666666667	0	n/a	228548	KeyDown	41324	4	Index	19
381.3450000000000	0	n/a	228808	KeyDown	41324	1	Little	19
381.9083333333334	0	n/a	229146	KeyDown	41324	3	Middle	19
382.1733333333333	0	n/a	229305	KeyDown	41324	2	Ring	19
382.5016666666667	0	n/a	229502	StopPractice	41324	n/a	n/a	19
382.5033333333333	0	n/a	229503	StartRest	XXXXX	n/a	n/a	19
392.5366666666667	0	n/a	235523	StopRest	XXXXX	n/a	n/a	19
392.5383333333334	0	UPPT001	235524	StartPractice	41324	n/a	n/a	20
393.2000000000000	0	n/a	235921	KeyDown	41324	4	Index	20
393.5000000000000	0	n/a	236101	KeyDown	41324	1	Little	20
393.8350000000000	0	n/a	236302	KeyDown	41324	3	Middle	20
394.1266666666667	0	n/a	236477	KeyDown	41324	2	Ring	20
394.4366666666667	0	n/a	236663	KeyDown	41324	4	Index	20
394.7883333333334	0	n/a	236874	KeyDown	41324	4	Index	20
395.0833333333334	0	n/a	237051	KeyDown	41324	1	Little	20
395.6066666666667	0	n/a	237365	KeyDown	41324	3	Middle	20
395.9050000000000	0	n/a	237544	KeyDown	41324	2	Ring	20
396.2100000000000	0	n/a	237727	KeyDown	41324	4	Index	20
396.4766666666667	0	n/a	237887	KeyDown	41324	4	Index	20
396.7416666666667	0	n/a	238046	KeyDown	41324	1	Little	20
397.3233333333334	0	n/a	238395	KeyDown	41324	3	Middle	20
397.6066666666667	0	n/a	238565	KeyDown	41324	2	Ring	20
397.8866666666667	0	n/a	238733	KeyDown	41324	4	Index	20
398.1900000000000	0	n/a	238915	KeyDown	41324	4	Index	20
398.4450000000001	0	n/a	239068	KeyDown	41324	1	Little	20
399.0516666666667	0	n/a	239432	KeyDown	41324	3	Middle	20
399.2766666666667	0	n/a	239567	KeyDown	41324	2	Ring	20
399.5550000000000	0	n/a	239734	KeyDown	41324	4	Index	20
399.9116666666667	0	n/a	239948	KeyDown	41324	4	Index	20
400.1750000000000	0	n/a	240106	KeyDown	41324	1	Little	20
400.6516666666667	0	n/a	240392	KeyDown	41324	3	Middle	20
400.9766666666667	0	n/a	240587	KeyDown	41324	2	Ring	20
401.8600000000000	0	n/a	241117	KeyDown	41324	4	Index	20
402.5766666666667	0	n/a	241547	StopPractice	41324	n/a	n/a	20
402.5783333333334	0	n/a	241548	StartRest	XXXXX	n/a	n/a	20
412.6116666666667	0	n/a	247568	StopRest	XXXXX	n/a	n/a	20
412.6133333333333	0	UPPT001	247569	StartPractice	41324	n/a	n/a	21
413.2350000000000	0	n/a	247942	KeyDown	41324	4	Index	21
413.4400000000001	0	n/a	248065	KeyDown	41324	1	Little	21
413.7150000000000	0	n/a	248230	KeyDown	41324	3	Middle	21
413.9766666666667	0	n/a	248387	KeyDown	41324	2	Ring	21
414.2350000000000	0	n/a	248542	KeyDown	41324	4	Index	21
414.5066666666667	0	n/a	248705	KeyDown	41324	4	Index	21
414.7766666666667	0	n/a	248867	KeyDown	41324	1	Little	21
415.1466666666667	0	n/a	249089	KeyDown	41324	3	Middle	21
415.5800000000000	0	n/a	249349	KeyDown	41324	2	Ring	21
416.0583333333333	0	n/a	249636	KeyDown	41324	4	Index	21
416.4566666666667	0	n/a	249875	KeyDown	41324	4	Index	21
416.6916666666667	0	n/a	250016	KeyDown	41324	1	Little	21
417.3033333333333	0	n/a	250383	KeyDown	41324	3	Middle	21
417.5250000000000	0	n/a	250516	KeyDown	41324	2	Ring	21
417.8300000000000	0	n/a	250699	KeyDown	41324	4	Index	21
418.1816666666667	0	n/a	250910	KeyDown	41324	4	Index	21
418.4300000000000	0	n/a	251059	KeyDown	41324	1	Little	21
418.8483333333334	0	n/a	251310	KeyDown	41324	3	Middle	21
419.0683333333334	0	n/a	251442	KeyDown	41324	2	Ring	21
419.4200000000000	0	n/a	251653	KeyDown	41324	4	Index	21
419.7850000000000	0	n/a	251872	KeyDown	41324	4	Index	21
420.0866666666667	0	n/a	252053	KeyDown	41324	1	Little	21
420.7316666666667	0	n/a	252440	KeyDown	41324	3	Middle	21
421.1000000000000	0	n/a	252661	KeyDown	41324	2	Ring	21
421.4716666666667	0	n/a	252884	KeyDown	41324	4	Index	21
421.9916666666667	0	n/a	253196	KeyDown	41324	4	Index	21
422.6516666666667	0	n/a	253592	StopPractice	41324	n/a	n/a	21
422.6533333333334	0	n/a	253593	StartRest	XXXXX	n/a	n/a	21
432.6866666666667	0	n/a	259613	StopRest	XXXXX	n/a	n/a	21
432.6883333333334	0	UPPT001	259614	StartPractice	41324	n/a	n/a	22
433.6400000000000	0	n/a	260185	KeyDown	41324	4	Index	22
433.9083333333334	0	n/a	260346	KeyDown	41324	1	Little	22
434.4050000000000	0	n/a	260644	KeyDown	41324	3	Middle	22
434.6750000000000	0	n/a	260806	KeyDown	41324	2	Ring	22
434.9733333333334	0	n/a	260985	KeyDown	41324	4	Index	22
435.3050000000000	0	n/a	261184	KeyDown	41324	4	Index	22
435.7150000000000	0	n/a	261430	KeyDown	41324	1	Little	22
436.2250000000000	0	n/a	261736	KeyDown	41324	3	Middle	22
436.4416666666667	0	n/a	261866	KeyDown	41324	2	Ring	22
436.7450000000000	0	n/a	262048	KeyDown	41324	4	Index	22
437.0083333333334	0	n/a	262206	KeyDown	41324	4	Index	22
437.3083333333333	0	n/a	262386	KeyDown	41324	1	Little	22
438.0016666666667	0	n/a	262802	KeyDown	41324	3	Middle	22
438.2000000000000	0	n/a	262921	KeyDown	41324	2	Ring	22
438.5166666666667	0	n/a	263111	KeyDown	41324	4	Index	22
438.8616666666667	0	n/a	263318	KeyDown	41324	4	Index	22
439.1183333333333	0	n/a	263472	KeyDown	41324	1	Little	22
439.6600000000000	0	n/a	263797	KeyDown	41324	3	Middle	22
439.8983333333334	0	n/a	263940	KeyDown	41324	2	Ring	22
440.1666666666667	0	n/a	264101	KeyDown	41324	4	Index	22
440.6883333333334	0	n/a	264414	KeyDown	41324	4	Index	22
441.0250000000000	0	n/a	264616	KeyDown	41324	1	Little	22
441.4600000000000	0	n/a	264877	KeyDown	41324	3	Middle	22
441.6950000000001	0	n/a	265018	KeyDown	41324	2	Ring	22
442.0416666666667	0	n/a	265226	KeyDown	41324	4	Index	22
442.3900000000000	0	n/a	265435	KeyDown	41324	1	Little	22
442.7266666666667	0	n/a	265637	StopPractice	41324	n/a	n/a	22
442.7283333333334	0	n/a	265638	StartRest	XXXXX	n/a	n/a	22
452.7616666666667	0	n/a	271658	StopRest	XXXXX	n/a	n/a	22
452.7633333333334	0	UPPT001	271659	StartPractice	41324	n/a	n/a	23
453.0216666666667	0	n/a	271814	KeyDown	41324	3	Middle	23
453.9450000000001	0	n/a	272368	KeyDown	41324	4	Index	23
454.2583333333334	0	n/a	272556	KeyDown	41324	1	Little	23
454.7450000000000	0	n/a	272848	KeyDown	41324	3	Middle	23
455.0116666666667	0	n/a	273008	KeyDown	41324	2	Ring	23
455.4066666666667	0	n/a	273245	KeyDown	41324	4	Index	23
455.7033333333334	0	n/a	273423	KeyDown	41324	4	Index	23
455.9666666666667	0	n/a	273581	KeyDown	41324	1	Little	23
456.3100000000000	0	n/a	273787	KeyDown	41324	3	Middle	23
456.5500000000000	0	n/a	273931	KeyDown	41324	2	Ring	23
457.2650000000000	0	n/a	274360	KeyDown	41324	1	Little	23
457.7916666666667	0	n/a	274676	KeyDown	41324	4	Index	23
458.9033333333334	0	n/a	275343	KeyDown	41324	3	Middle	23
459.2233333333334	0	n/a	275535	KeyDown	41324	2	Ring	23
460.2000000000000	0	n/a	276121	KeyDown	41324	4	Index	23
460.6316666666667	0	n/a	276380	KeyDown	41324	4	Index	23
460.9116666666667	0	n/a	276548	KeyDown	41324	1	Little	23
461.5783333333334	0	n/a	276948	KeyDown	41324	3	Middle	23
461.8400000000000	0	n/a	277105	KeyDown	41324	2	Ring	23
462.2183333333334	0	n/a	277332	KeyDown	41324	4	Index	23
462.7433333333333	0	n/a	277647	KeyDown	41324	4	Index	23
462.8016666666667	0	n/a	277682	StopPractice	41324	n/a	n/a	23
462.8033333333333	0	n/a	277683	StartRest	XXXXX	n/a	n/a	23
472.8350000000000	0	n/a	283702	StopRest	XXXXX	n/a	n/a	23
472.8366666666667	0	UPPT001	283703	StartPractice	41324	n/a	n/a	24
473.3483333333334	0	n/a	284010	KeyDown	41324	4	Index	24
473.5900000000000	0	n/a	284155	KeyDown	41324	1	Little	24
473.9500000000000	0	n/a	284371	KeyDown	41324	3	Middle	24
474.1883333333334	0	n/a	284514	KeyDown	41324	2	Ring	24
474.4983333333334	0	n/a	284700	KeyDown	41324	4	Index	24
474.8233333333334	0	n/a	284895	KeyDown	41324	4	Index	24
475.1450000000000	0	n/a	285088	KeyDown	41324	1	Little	24
475.8500000000000	0	n/a	285511	KeyDown	41324	3	Middle	24
476.0900000000000	0	n/a	285655	KeyDown	41324	2	Ring	24
476.5266666666667	0	n/a	285917	KeyDown	41324	4	Index	24
476.7933333333334	0	n/a	286077	KeyDown	41324	4	Index	24
477.0650000000001	0	n/a	286240	KeyDown	41324	1	Little	24
477.4133333333334	0	n/a	286449	KeyDown	41324	3	Middle	24
477.6250000000001	0	n/a	286576	KeyDown	41324	2	Ring	24
477.9233333333333	0	n/a	286755	KeyDown	41324	4	Index	24
478.2633333333334	0	n/a	286959	KeyDown	41324	4	Index	24
478.5483333333333	0	n/a	287130	KeyDown	41324	1	Little	24
479.1100000000000	0	n/a	287467	KeyDown	41324	3	Middle	24
479.2933333333334	0	n/a	287577	KeyDown	41324	2	Ring	24
479.6100000000000	0	n/a	287767	KeyDown	41324	4	Index	24
479.9633333333334	0	n/a	287979	KeyDown	41324	4	Index	24
480.2000000000000	0	n/a	288121	KeyDown	41324	1	Little	24
480.8833333333334	0	n/a	288531	KeyDown	41324	3	Middle	24
481.0833333333334	0	n/a	288651	KeyDown	41324	2	Ring	24
481.5250000000000	0	n/a	288916	KeyDown	41324	1	Little	24
482.3516666666667	0	n/a	289412	KeyDown	41324	4	Index	24
482.8750000000001	0	n/a	289726	StopPractice	41324	n/a	n/a	24
482.8766666666667	0	n/a	289727	StartRest	XXXXX	n/a	n/a	24
492.9100000000000	0	n/a	295747	StopRest	XXXXX	n/a	n/a	24
492.9116666666667	0	UPPT001	295748	StartPractice	41324	n/a	n/a	25
493.6300000000001	0	n/a	296179	KeyDown	41324	4	Index	25
493.9600000000000	0	n/a	296377	KeyDown	41324	1	Little	25
494.3416666666667	0	n/a	296606	KeyDown	41324	3	Middle	25
494.5550000000000	0	n/a	296734	KeyDown	41324	2	Ring	25
494.8516666666667	0	n/a	296912	KeyDown	41324	4	Index	25
495.4350000000001	0	n/a	297262	KeyDown	41324	4	Index	25
495.7650000000000	0	n/a	297460	KeyDown	41324	1	Little	25
496.1716666666667	0	n/a	297704	KeyDown	41324	3	Middle	25
496.3883333333334	0	n/a	297834	KeyDown	41324	2	Ring	25
496.7833333333334	0	n/a	298071	KeyDown	41324	4	Index	25
497.1616666666667	0	n/a	298298	KeyDown	41324	4	Index	25
497.4366666666667	0	n/a	298463	KeyDown	41324	1	Little	25
498.0950000000000	0	n/a	298858	KeyDown	41324	3	Middle	25
498.2816666666667	0	n/a	298970	KeyDown	41324	2	Ring	25
498.5100000000000	0	n/a	299107	KeyDown	41324	4	Index	25
498.9583333333334	0	n/a	299376	KeyDown	41324	4	Index	25
499.2383333333333	0	n/a	299544	KeyDown	41324	1	Little	25
499.7350000000000	0	n/a	299842	KeyDown	41324	3	Middle	25
499.9650000000000	0	n/a	299980	KeyDown	41324	2	Ring	25
500.3850000000000	0	n/a	300232	KeyDown	41324	4	Index	25
500.8200000000001	0	n/a	300493	KeyDown	41324	4	Index	25
501.1483333333334	0	n/a	300690	KeyDown	41324	1	Little	25
501.6300000000001	0	n/a	300979	KeyDown	41324	3	Middle	25
501.8366666666667	0	n/a	301103	KeyDown	41324	2	Ring	25
502.2600000000000	0	n/a	301357	KeyDown	41324	4	Index	25
502.6333333333334	0	n/a	301581	KeyDown	41324	1	Little	25
502.9500000000000	0	n/a	301771	StopPractice	41324	n/a	n/a	25
502.9516666666667	0	n/a	301772	StartRest	XXXXX	n/a	n/a	25
512.9866666666667	0	n/a	307793	StopRest	XXXXX	n/a	n/a	25
512.9883333333333	0	UPPT001	307794	StartPractice	41324	n/a	n/a	26
513.5450000000001	0	n/a	308128	KeyDown	41324	4	Index	26
513.7166666666667	0	n/a	308231	KeyDown	41324	1	Little	26
514.0416666666667	0	n/a	308426	KeyDown	41324	3	Middle	26
514.2650000000000	0	n/a	308560	KeyDown	41324	2	Ring	26
514.5333333333334	0	n/a	308721	KeyDown	41324	4	Index	26
514.9550000000000	0	n/a	308974	KeyDown	41324	4	Index	26
515.4883333333333	0	n/a	309294	KeyDown	41324	1	Little	26
515.8950000000000	0	n/a	309538	KeyDown	41324	3	Middle	26
516.0933333333334	0	n/a	309657	KeyDown	41324	2	Ring	26
516.5266666666668	0	n/a	309917	KeyDown	41324	4	Index	26
516.9666666666667	0	n/a	310181	KeyDown	41324	4	Index	26
517.1950000000001	0	n/a	310318	KeyDown	41324	1	Little	26
517.5100000000000	0	n/a	310507	KeyDown	41324	3	Middle	26
517.6766666666667	0	n/a	310607	KeyDown	41324	2	Ring	26
518.0583333333334	0	n/a	310836	KeyDown	41324	4	Index	26
518.5566666666667	0	n/a	311135	KeyDown	41324	1	Little	26
519.6116666666667	0	n/a	311768	KeyDown	41324	3	Middle	26
520.0850000000000	0	n/a	312052	KeyDown	41324	2	Ring	26
520.4300000000001	0	n/a	312259	KeyDown	41324	4	Index	26
520.8216666666667	0	n/a	312494	KeyDown	41324	4	Index	26
521.4950000000000	0	n/a	312898	KeyDown	41324	1	Little	26
522.5900000000000	0	n/a	313555	KeyDown	41324	3	Middle	26
522.8083333333334	0	n/a	313686	KeyDown	41324	2	Ring	26
523.0266666666668	0	n/a	313817	StopPractice	41324	n/a	n/a	26
523.0283333333334	0	n/a	313818	StartRest	XXXXX	n/a	n/a	26
533.0600000000001	0	n/a	319837	StopRest	XXXXX	n/a	n/a	26
533.0616666666667	0	UPPT001	319838	StartPractice	41324	n/a	n/a	27
533.7733333333333	0	n/a	320265	KeyDown	41324	4	Index	27
534.0133333333333	0	n/a	320409	KeyDown	41324	1	Little	27
534.3933333333333	0	n/a	320637	KeyDown	41324	3	Middle	27
534.5783333333334	0	n/a	320748	KeyDown	41324	2	Ring	27
534.8766666666667	0	n/a	320927	KeyDown	41324	4	Index	27
535.3133333333334	0	n/a	321189	KeyDown	41324	4	Index	27
535.5483333333334	0	n/a	321330	KeyDown	41324	1	Little	27
535.9183333333334	0	n/a	321552	KeyDown	41324	3	Middle	27
536.1250000000000	0	n/a	321676	KeyDown	41324	2	Ring	27
536.4133333333334	0	n/a	321849	KeyDown	41324	4	Index	27
536.7383333333333	0	n/a	322044	KeyDown	41324	4	Index	27
536.9616666666667	0	n/a	322178	KeyDown	41324	1	Little	27
537.4850000000000	0	n/a	322492	KeyDown	41324	3	Middle	27
537.6700000000001	0	n/a	322603	KeyDown	41324	2	Ring	27
537.9666666666667	0	n/a	322781	KeyDown	41324	4	Index	27
538.3183333333334	0	n/a	322992	KeyDown	41324	4	Index	27
538.6250000000000	0	n/a	323176	KeyDown	41324	4	Index	27
540.0166666666667	0	n/a	324011	KeyDown	41324	1	Little	27
540.4733333333334	0	n/a	324285	KeyDown	41324	3	Middle	27
540.6883333333334	0	n/a	324414	KeyDown	41324	2	Ring	27
540.9850000000000	0	n/a	324592	KeyDown	41324	4	Index	27
541.3633333333333	0	n/a	324819	KeyDown	41324	4	Index	27
541.7066666666667	0	n/a	325025	KeyDown	41324	1	Little	27
542.1650000000001	0	n/a	325300	KeyDown	41324	3	Middle	27
542.3683333333333	0	n/a	325422	KeyDown	41324	2	Ring	27
542.6883333333334	0	n/a	325614	KeyDown	41324	4	Index	27
543.1000000000000	0	n/a	325861	StopPractice	41324	n/a	n/a	27
543.1016666666667	0	n/a	325862	StartRest	XXXXX	n/a	n/a	27
553.1350000000000	0	n/a	331882	StopRest	XXXXX	n/a	n/a	27
553.1366666666667	0	UPPT001	331883	StartPractice	41324	n/a	n/a	28
553.8833333333333	0	n/a	332331	KeyDown	41324	4	Index	28
554.1816666666667	0	n/a	332510	KeyDown	41324	1	Little	28
554.5383333333334	0	n/a	332724	KeyDown	41324	3	Middle	28
554.7716666666666	0	n/a	332864	KeyDown	41324	2	Ring	28
555.0833333333334	0	n/a	333051	KeyDown	41324	4	Index	28
555.4433333333334	0	n/a	333267	KeyDown	41324	4	Index	28
555.7650000000000	0	n/a	333460	KeyDown	41324	1	Little	28
556.2533333333333	0	n/a	333753	KeyDown	41324	3	Middle	28
556.4650000000000	0	n/a	333880	KeyDown	41324	2	Ring	28
556.8550000000000	0	n/a	334114	KeyDown	41324	4	Index	28
557.2450000000000	0	n/a	334348	KeyDown	41324	4	Index	28
557.4933333333333	0	n/a	334497	KeyDown	41324	1	Little	28
557.8750000000000	0	n/a	334726	KeyDown	41324	3	Middle	28
558.1000000000000	0	n/a	334861	KeyDown	41324	2	Ring	28
558.4450000000001	0	n/a	335068	KeyDown	41324	4	Index	28
558.8150000000001	0	n/a	335290	KeyDown	41324	4	Index	28
559.0750000000000	0	n/a	335446	KeyDown	41324	1	Little	28
559.5283333333334	0	n/a	335718	KeyDown	41324	3	Middle	28
559.7333333333333	0	n/a	335841	KeyDown	41324	2	Ring	28
560.0383333333334	0	n/a	336024	KeyDown	41324	4	Index	28
560.4133333333334	0	n/a	336249	KeyDown	41324	4	Index	28
560.6950000000001	0	n/a	336418	KeyDown	41324	1	Little	28
561.1200000000000	0	n/a	336673	KeyDown	41324	3	Middle	28
561.3200000000001	0	n/a	336793	KeyDown	41324	3	Middle	28
561.5833333333334	0	n/a	336951	KeyDown	41324	2	Ring	28
561.8800000000000	0	n/a	337129	KeyDown	41324	4	Index	28
562.3100000000001	0	n/a	337387	KeyDown	41324	4	Index	28
562.5550000000001	0	n/a	337534	KeyDown	41324	1	Little	28
563.0950000000000	0	n/a	337858	KeyDown	41324	3	Middle	28
563.1750000000001	0	n/a	337906	StopPractice	41324	n/a	n/a	28
563.1766666666667	0	n/a	337907	StartRest	XXXXX	n/a	n/a	28
573.2100000000000	0	n/a	343927	StopRest	XXXXX	n/a	n/a	28
573.2116666666667	0	UPPT001	343928	StartPractice	41324	n/a	n/a	29
573.5800000000000	0	n/a	344149	KeyDown	41324	4	Index	29
573.7866666666667	0	n/a	344273	KeyDown	41324	1	Little	29
574.1750000000001	0	n/a	344506	KeyDown	41324	3	Middle	29
574.4283333333334	0	n/a	344658	KeyDown	41324	2	Ring	29
575.7666666666667	0	n/a	345461	KeyDown	41324	4	Index	29
576.3350000000000	0	n/a	345802	KeyDown	41324	4	Index	29
576.7300000000000	0	n/a	346039	KeyDown	41324	1	Little	29
577.0400000000001	0	n/a	346225	KeyDown	41324	3	Middle	29
577.2200000000000	0	n/a	346333	KeyDown	41324	2	Ring	29
577.5550000000001	0	n/a	346534	KeyDown	41324	4	Index	29
577.9350000000001	0	n/a	346762	KeyDown	41324	4	Index	29
578.1833333333334	0	n/a	346911	KeyDown	41324	1	Little	29
578.5466666666667	0	n/a	347129	KeyDown	41324	3	Middle	29
578.7800000000001	0	n/a	347269	KeyDown	41324	2	Ring	29
579.0716666666667	0	n/a	347444	KeyDown	41324	4	Index	29
579.5000000000000	0	n/a	347701	KeyDown	41324	4	Index	29
579.8133333333334	0	n/a	347889	KeyDown	41324	1	Little	29
580.1983333333334	0	n/a	348120	KeyDown	41324	3	Middle	29
580.3733333333333	0	n/a	348225	KeyDown	41324	2	Ring	29
580.7050000000000	0	n/a	348424	KeyDown	41324	4	Index	29
581.1366666666667	0	n/a	348683	KeyDown	41324	4	Index	29
581.3650000000000	0	n/a	348820	KeyDown	41324	3	Middle	29
581.5400000000001	0	n/a	348925	KeyDown	41324	2	Ring	29
581.9433333333334	0	n/a	349167	KeyDown	41324	1	Little	29
583.1283333333333	0	n/a	349878	KeyDown	41324	4	Index	29
583.2500000000000	0	n/a	349951	StopPractice	41324	n/a	n/a	29
583.2516666666667	0	n/a	349952	StartRest	XXXXX	n/a	n/a	29
593.2850000000001	0	n/a	355972	StopRest	XXXXX	n/a	n/a	29
593.2866666666667	0	UPPT001	355973	StartPractice	41324	n/a	n/a	30
593.9433333333334	0	n/a	356367	KeyDown	41324	4	Index	30
594.2183333333334	0	n/a	356532	KeyDown	41324	1	Little	30
594.5233333333334	0	n/a	356715	KeyDown	41324	3	Middle	30
594.7300000000000	0	n/a	356839	KeyDown	41324	2	Ring	30
595.2233333333334	0	n/a	357135	KeyDown	41324	4	Index	30
595.6466666666668	0	n/a	357389	KeyDown	41324	4	Index	30
595.9300000000001	0	n/a	357559	KeyDown	41324	1	Little	30
596.2983333333334	0	n/a	357780	KeyDown	41324	3	Middle	30
596.5000000000000	0	n/a	357901	KeyDown	41324	2	Ring	30
596.8566666666667	0	n/a	358115	KeyDown	41324	4	Index	30
597.2233333333334	0	n/a	358335	KeyDown	41324	4	Index	30
598.1866666666667	0	n/a	358913	KeyDown	41324	1	Little	30
598.6083333333333	0	n/a	359166	KeyDown	41324	3	Middle	30
598.7900000000001	0	n/a	359275	KeyDown	41324	2	Ring	30
599.1650000000001	0	n/a	359500	KeyDown	41324	4	Index	30
600.2750000000001	0	n/a	360166	KeyDown	41324	4	Index	30
600.8950000000000	0	n/a	360538	KeyDown	41324	1	Little	30
601.3633333333333	0	n/a	360819	KeyDown	41324	3	Middle	30
601.5250000000001	0	n/a	360916	KeyDown	41324	2	Ring	30
601.8833333333333	0	n/a	361131	KeyDown	41324	4	Index	30
602.5900000000000	0	n/a	361555	KeyDown	41324	4	Index	30
603.0233333333334	0	n/a	361815	KeyDown	41324	1	Little	30
603.3250000000000	0	n/a	361996	StopPractice	41324	n/a	n/a	30
603.3266666666667	0	n/a	361997	StartRest	XXXXX	n/a	n/a	30
613.3600000000000	0	n/a	368017	StopRest	XXXXX	n/a	n/a	30
613.3616666666667	0	UPPT001	368018	StartPractice	41324	n/a	n/a	31
613.8233333333334	0	n/a	368295	KeyDown	41324	4	Index	31
614.1133333333333	0	n/a	368469	KeyDown	41324	1	Little	31
614.4800000000000	0	n/a	368689	KeyDown	41324	3	Middle	31
614.6933333333334	0	n/a	368817	KeyDown	41324	2	Ring	31
615.0000000000000	0	n/a	369001	KeyDown	41324	4	Index	31
615.3983333333334	0	n/a	369240	KeyDown	41324	4	Index	31
615.7300000000000	0	n/a	369439	KeyDown	41324	1	Little	31
616.1033333333334	0	n/a	369663	KeyDown	41324	3	Middle	31
616.4883333333333	0	n/a	369894	KeyDown	41324	2	Ring	31
616.8216666666667	0	n/a	370094	KeyDown	41324	4	Index	31
617.2833333333334	0	n/a	370371	KeyDown	41324	4	Index	31
617.5500000000001	0	n/a	370531	KeyDown	41324	1	Little	31
617.9850000000000	0	n/a	370792	KeyDown	41324	3	Middle	31
618.1666666666667	0	n/a	370901	KeyDown	41324	2	Ring	31
618.4633333333334	0	n/a	371079	KeyDown	41324	4	Index	31
618.9283333333334	0	n/a	371358	KeyDown	41324	4	Index	31
619.2133333333334	0	n/a	371529	KeyDown	41324	1	Little	31
619.6200000000000	0	n/a	371773	KeyDown	41324	3	Middle	31
619.8350000000000	0	n/a	371902	KeyDown	41324	2	Ring	31
620.1783333333334	0	n/a	372108	KeyDown	41324	4	Index	31
620.6966666666667	0	n/a	372419	KeyDown	41324	1	Little	31
621.7850000000001	0	n/a	373072	KeyDown	41324	4	Index	31
622.3083333333334	0	n/a	373386	KeyDown	41324	3	Middle	31
622.5500000000001	0	n/a	373531	KeyDown	41324	2	Ring	31
623.2283333333334	0	n/a	373938	KeyDown	41324	4	Index	31
623.4000000000001	0	n/a	374041	StopPractice	41324	n/a	n/a	31
623.4016666666668	0	n/a	374042	StartRest	XXXXX	n/a	n/a	31
633.4350000000001	0	n/a	380062	StopRest	XXXXX	n/a	n/a	31
633.4366666666667	0	UPPT001	380063	StartPractice	41324	n/a	n/a	32
634.1133333333333	0	n/a	380469	KeyDown	41324	4	Index	32
634.3850000000000	0	n/a	380632	KeyDown	41324	1	Little	32
634.7566666666667	0	n/a	380855	KeyDown	41324	3	Middle	32
635.0150000000000	0	n/a	381010	KeyDown	41324	2	Ring	32
635.3033333333334	0	n/a	381183	KeyDown	41324	4	Index	32
635.7600000000000	0	n/a	381457	KeyDown	41324	4	Index	32
636.1250000000000	0	n/a	381676	KeyDown	41324	1	Little	32
636.5916666666667	0	n/a	381956	KeyDown	41324	3	Middle	32
636.8366666666667	0	n/a	382103	KeyDown	41324	2	Ring	32
637.1716666666667	0	n/a	382304	KeyDown	41324	4	Index	32
637.5966666666667	0	n/a	382559	KeyDown	41324	4	Index	32
638.3233333333334	0	n/a	382995	KeyDown	41324	1	Little	32
638.7266666666667	0	n/a	383237	KeyDown	41324	3	Middle	32
638.9566666666667	0	n/a	383375	KeyDown	41324	2	Ring	32
639.3183333333334	0	n/a	383592	KeyDown	41324	4	Index	32
639.7016666666667	0	n/a	383822	KeyDown	41324	4	Index	32
640.0683333333334	0	n/a	384042	KeyDown	41324	1	Little	32
640.4633333333334	0	n/a	384279	KeyDown	41324	3	Middle	32
640.6433333333334	0	n/a	384387	KeyDown	41324	2	Ring	32
640.9450000000001	0	n/a	384568	KeyDown	41324	4	Index	32
641.3500000000000	0	n/a	384811	KeyDown	41324	1	Little	32
642.3450000000000	0	n/a	385408	KeyDown	41324	4	Index	32
642.7683333333334	0	n/a	385662	KeyDown	41324	3	Middle	32
642.9200000000001	0	n/a	385753	KeyDown	41324	2	Ring	32
643.2250000000000	0	n/a	385936	KeyDown	41324	1	Little	32
643.4750000000000	0	n/a	386086	StopPractice	41324	n/a	n/a	32
643.4766666666667	0	n/a	386087	StartRest	XXXXX	n/a	n/a	32
653.5100000000000	0	n/a	392107	StopRest	XXXXX	n/a	n/a	32
653.5116666666667	0	UPPT001	392108	StartPractice	41324	n/a	n/a	33
654.1350000000000	0	n/a	392482	KeyDown	41324	4	Index	33
654.3883333333333	0	n/a	392634	KeyDown	41324	1	Little	33
654.7900000000001	0	n/a	392875	KeyDown	41324	3	Middle	33
655.0366666666667	0	n/a	393023	KeyDown	41324	2	Ring	33
655.3366666666667	0	n/a	393203	KeyDown	41324	4	Index	33
655.7150000000000	0	n/a	393430	KeyDown	41324	4	Index	33
655.9766666666667	0	n/a	393587	KeyDown	41324	1	Little	33
656.2983333333334	0	n/a	393780	KeyDown	41324	3	Middle	33
656.5100000000000	0	n/a	393907	KeyDown	41324	2	Ring	33
656.8833333333333	0	n/a	394131	KeyDown	41324	4	Index	33
657.2800000000001	0	n/a	394369	KeyDown	41324	4	Index	33
657.5500000000001	0	n/a	394531	KeyDown	41324	1	Little	33
657.9433333333334	0	n/a	394767	KeyDown	41324	3	Middle	33
658.1533333333334	0	n/a	394893	KeyDown	41324	2	Ring	33
658.7633333333333	0	n/a	395259	KeyDown	41324	4	Index	33
659.1816666666667	0	n/a	395510	KeyDown	41324	4	Index	33
659.4816666666667	0	n/a	395690	KeyDown	41324	1	Little	33
659.9233333333334	0	n/a	395955	KeyDown	41324	3	Middle	33
660.2383333333333	0	n/a	396144	KeyDown	41324	2	Ring	33
660.6116666666667	0	n/a	396368	KeyDown	41324	4	Index	33
661.1600000000001	0	n/a	396697	KeyDown	41324	4	Index	33
661.4516666666667	0	n/a	396872	KeyDown	41324	1	Little	33
661.8033333333334	0	n/a	397083	KeyDown	41324	3	Middle	33
662.0250000000001	0	n/a	397216	KeyDown	41324	2	Ring	33
662.3233333333334	0	n/a	397395	KeyDown	41324	4	Index	33
662.7333333333333	0	n/a	397641	KeyDown	41324	4	Index	33
663.0216666666668	0	n/a	397814	KeyDown	41324	1	Little	33
663.4083333333334	0	n/a	398046	KeyDown	41324	3	Middle	33
663.5500000000001	0	n/a	398131	StopPractice	41324	n/a	n/a	33
663.5516666666667	0	n/a	398132	StartRest	XXXXX	n/a	n/a	33
673.5850000000000	0	n/a	404152	StopRest	XXXXX	n/a	n/a	33
673.5866666666667	0	UPPT001	404153	StartPractice	41324	n/a	n/a	34
674.2750000000001	0	n/a	404566	KeyDown	41324	4	Index	34
674.4683333333334	0	n/a	404682	KeyDown	41324	1	Little	34
674.8133333333334	0	n/a	404889	KeyDown	41324	3	Middle	34
674.9983333333333	0	n/a	405000	KeyDown	41324	2	Ring	34
675.5600000000001	0	n/a	405337	KeyDown	41324	4	Index	34
675.9616666666667	0	n/a	405578	KeyDown	41324	4	Index	34
676.1533333333334	0	n/a	405693	KeyDown	41324	1	Little	34
676.4983333333333	0	n/a	405900	KeyDown	41324	3	Middle	34
676.7000000000000	0	n/a	406021	KeyDown	41324	2	Ring	34
677.0883333333334	0	n/a	406254	KeyDown	41324	4	Index	34
677.4300000000001	0	n/a	406459	KeyDown	41324	4	Index	34
677.7983333333334	0	n/a	406680	KeyDown	41324	1	Little	34
678.1483333333334	0	n/a	406890	KeyDown	41324	3	Middle	34
678.3416666666667	0	n/a	407006	KeyDown	41324	2	Ring	34
678.6850000000001	0	n/a	407212	KeyDown	41324	4	Index	34
679.0850000000000	0	n/a	407452	KeyDown	41324	4	Index	34
679.4983333333333	0	n/a	407700	KeyDown	41324	1	Little	34
679.9000000000001	0	n/a	407941	KeyDown	41324	3	Middle	34
680.1033333333334	0	n/a	408063	KeyDown	41324	2	Ring	34
680.4083333333334	0	n/a	408246	KeyDown	41324	4	Index	34
680.7583333333333	0	n/a	408456	KeyDown	41324	4	Index	34
681.0116666666667	0	n/a	408608	KeyDown	41324	1	Little	34
681.4350000000001	0	n/a	408862	KeyDown	41324	3	Middle	34
681.6350000000000	0	n/a	408982	KeyDown	41324	2	Ring	34
681.9383333333334	0	n/a	409164	KeyDown	41324	4	Index	34
682.4150000000001	0	n/a	409450	KeyDown	41324	4	Index	34
682.6583333333334	0	n/a	409596	KeyDown	41324	1	Little	34
683.0183333333334	0	n/a	409812	KeyDown	41324	3	Middle	34
683.1600000000001	0	n/a	409897	KeyDown	41324	2	Ring	34
683.5883333333334	0	n/a	410154	KeyDown	41324	4	Index	34
683.6250000000000	0	n/a	410176	StopPractice	41324	n/a	n/a	34
683.6266666666667	0	n/a	410177	StartRest	XXXXX	n/a	n/a	34
693.6583333333334	0	n/a	416196	StopRest	XXXXX	n/a	n/a	34
693.6600000000001	0	UPPT001	416197	StartPractice	41324	n/a	n/a	35
694.0233333333334	0	n/a	416415	KeyDown	41324	4	Index	35
694.2166666666667	0	n/a	416531	KeyDown	41324	1	Little	35
694.5583333333334	0	n/a	416736	KeyDown	41324	3	Middle	35
694.7483333333333	0	n/a	416850	KeyDown	41324	2	Ring	35
695.1033333333334	0	n/a	417063	KeyDown	41324	4	Index	35
695.5016666666667	0	n/a	417302	KeyDown	41324	4	Index	35
695.9983333333333	0	n/a	417600	KeyDown	41324	1	Little	35
696.4100000000001	0	n/a	417847	KeyDown	41324	3	Middle	35
696.5350000000001	0	n/a	417922	KeyDown	41324	2	Ring	35
696.8950000000001	0	n/a	418138	KeyDown	41324	4	Index	35
697.3933333333334	0	n/a	418437	KeyDown	41324	4	Index	35
697.6300000000000	0	n/a	418579	KeyDown	41324	1	Little	35
698.0783333333334	0	n/a	418848	KeyDown	41324	3	Middle	35
698.2666666666668	0	n/a	418961	KeyDown	41324	2	Ring	35
698.6700000000001	0	n/a	419203	KeyDown	41324	4	Index	35
699.0816666666667	0	n/a	419450	KeyDown	41324	1	Little	35
700.5616666666667	0	n/a	420338	KeyDown	41324	4	Index	35
701.0516666666667	0	n/a	420632	KeyDown	41324	3	Middle	35
701.1983333333334	0	n/a	420720	KeyDown	41324	2	Ring	35
701.7400000000000	0	n/a	421045	KeyDown	41324	4	Index	35
702.3650000000000	0	n/a	421420	KeyDown	41324	4	Index	35
702.6383333333334	0	n/a	421584	KeyDown	41324	1	Little	35
703.0350000000001	0	n/a	421822	KeyDown	41324	3	Middle	35
703.2150000000000	0	n/a	421930	KeyDown	41324	2	Ring	35
703.6983333333334	0	n/a	422220	StopPractice	41324	n/a	n/a	35
703.7000000000000	0	n/a	422221	StartRest	XXXXX	n/a	n/a	35
713.7350000000000	0	n/a	428242	StopRest	XXXXX	n/a	n/a	35
713.7366666666667	0	UPPT001	428243	StartPractice	41324	n/a	n/a	36
714.3433333333334	0	n/a	428607	KeyDown	41324	4	Index	36
714.7350000000000	0	n/a	428842	KeyDown	41324	1	Little	36
715.1750000000001	0	n/a	429106	KeyDown	41324	3	Middle	36
715.3500000000000	0	n/a	429211	KeyDown	41324	2	Ring	36
715.7250000000000	0	n/a	429436	KeyDown	41324	4	Index	36
716.0833333333334	0	n/a	429651	KeyDown	41324	4	Index	36
716.3716666666667	0	n/a	429824	KeyDown	41324	1	Little	36
716.7700000000001	0	n/a	430063	KeyDown	41324	3	Middle	36
716.9183333333334	0	n/a	430152	KeyDown	41324	2	Ring	36
717.3116666666667	0	n/a	430388	KeyDown	41324	4	Index	36
717.6383333333334	0	n/a	430584	KeyDown	41324	4	Index	36
717.8866666666667	0	n/a	430733	KeyDown	41324	1	Little	36
718.2966666666667	0	n/a	430979	KeyDown	41324	3	Middle	36
718.4783333333334	0	n/a	431088	KeyDown	41324	2	Ring	36
720.1783333333334	0	n/a	432108	KeyDown	41324	4	Index	36
720.7650000000001	0	n/a	432460	KeyDown	41324	1	Little	36
721.5300000000001	0	n/a	432919	KeyDown	41324	3	Middle	36
721.7516666666667	0	n/a	433052	KeyDown	41324	2	Ring	36
722.2500000000000	0	n/a	433351	KeyDown	41324	4	Index	36
722.7333333333333	0	n/a	433641	KeyDown	41324	4	Index	36
722.9800000000000	0	n/a	433789	KeyDown	41324	1	Little	36
723.3666666666667	0	n/a	434021	KeyDown	41324	3	Middle	36
723.5400000000001	0	n/a	434125	KeyDown	41324	2	Ring	36
723.7750000000001	0	n/a	434266	StopPractice	41324	n/a	n/a	36
723.7766666666668	0	n/a	434267	StartRest	XXXXX	n/a	n/a	36
733.8116666666667	0	n/a	440288	StopRest	XXXXX	n/a	n/a	36
