onset	duration	channel	onset_sample_idx	event_type	target_sequence	keypress_id	finger_label	trial_number
25.3083333333333	0	UPPT001	15186	StartPractice	41324	n/a	n/a	1
30.4466666666667	0	n/a	18269	KeyDown	41324	4	Index	1
31.1033333333333	0	n/a	18663	KeyDown	41324	1	Little	1
32.5533333333333	0	n/a	19533	KeyDown	41324	3	Middle	1
33.3966666666667	0	n/a	20039	KeyDown	41324	2	Ring	1
34.2716666666667	0	n/a	20564	KeyDown	41324	4	Index	1
35.3466666666667	0	n/a	21209	StopPractice	41324	n/a	n/a	1
35.3483333333333	0	n/a	21210	StartRest	XXXXX	n/a	n/a	1
45.4016666666667	0	n/a	27242	StopRest	XXXXX	n/a	n/a	1
45.4033333333333	0	UPPT001	27243	StartPractice	41324	n/a	n/a	2
46.7216666666667	0	n/a	28034	KeyDown	41324	4	Index	2
47.4833333333333	0	n/a	28491	KeyDown	41324	1	Little	2
48.0300000000000	0	n/a	28819	KeyDown	41324	3	Middle	2
48.3400000000000	0	n/a	29005	KeyDown	41324	2	Ring	2
48.6400000000000	0	n/a	29185	KeyDown	41324	4	Index	2
49.6316666666667	0	n/a	29780	KeyDown	41324	4	Index	2
50.3516666666667	0	n/a	30212	KeyDown	41324	1	Little	2
50.8516666666667	0	n/a	30512	KeyDown	41324	3	Middle	2
51.1983333333333	0	n/a	30720	KeyDown	41324	2	Ring	2
51.7066666666667	0	n/a	31025	KeyDown	41324	4	Index	2
52.2816666666667	0	n/a	31370	KeyDown	41324	4	Index	2
52.5916666666667	0	n/a	31556	KeyDown	41324	1	Little	2
53.9816666666667	0	n/a	32390	KeyDown	41324	3	Middle	2
54.3650000000000	0	n/a	32620	KeyDown	41324	2	Ring	2
54.9416666666667	0	n/a	32966	KeyDown	41324	4	Index	2
55.4416666666667	0	n/a	33266	StopPractice	41324	n/a	n/a	2
55.4433333333333	0	n/a	33267	StartRest	XXXXX	n/a	n/a	2
65.4750000000000	0	n/a	39286	StopRest	XXXXX	n/a	n/a	2
65.4766666666667	0	UPPT001	39287	StartPractice	41324	n/a	n/a	3
66.9683333333333	0	n/a	40182	KeyDown	41324	4	Index	3
67.5900000000000	0	n/a	40555	KeyDown	41324	1	Little	3
68.0133333333333	0	n/a	40809	KeyDown	41324	3	Middle	3
68.3883333333333	0	n/a	41034	KeyDown	41324	2	Ring	3
68.6733333333333	0	n/a	41205	KeyDown	41324	4	Index	3
69.2333333333333	0	n/a	41541	KeyDown	41324	4	Index	3
69.5233333333333	0	n/a	41715	KeyDown	41324	1	Little	3
69.8000000000000	0	n/a	41881	KeyDown	41324	3	Middle	3
70.0500000000000	0	n/a	42031	KeyDown	41324	2	Ring	3
70.2883333333333	0	n/a	42174	KeyDown	41324	4	Index	3
71.2616666666667	0	n/a	42758	KeyDown	41324	4	Index	3
71.7250000000000	0	n/a	43036	KeyDown	41324	1	Little	3
72.0533333333333	0	n/a	43233	KeyDown	41324	3	Middle	3
72.3750000000000	0	n/a	43426	KeyDown	41324	2	Ring	3
72.6566666666667	0	n/a	43595	KeyDown	41324	4	Index	3
73.8583333333333	0	n/a	44316	KeyDown	41324	4	Index	3
74.5350000000000	0	n/a	44722	KeyDown	41324	1	Little	3
74.9683333333333	0	n/a	44982	KeyDown	41324	3	Middle	3
75.3050000000000	0	n/a	45184	KeyDown	41324	2	Ring	3
75.5150000000000	0	n/a	45310	StopPractice	41324	n/a	n/a	3
75.5166666666667	0	n/a	45311	StartRest	XXXXX	n/a	n/a	3
85.5500000000000	0	n/a	51331	StopRest	XXXXX	n/a	n/a	3
85.5516666666667	0	UPPT001	51332	StartPractice	41324	n/a	n/a	4
86.8550000000000	0	n/a	52114	KeyDown	41324	4	Index	4
87.1800000000000	0	n/a	52309	KeyDown	41324	1	Little	4
87.5583333333333	0	n/a	52536	KeyDown	41324	3	Middle	4
87.8500000000000	0	n/a	52711	KeyDown	41324	2	Ring	4
88.1600000000000	0	n/a	52897	KeyDown	41324	2	Ring	4
89.1283333333333	0	n/a	53478	KeyDown	41324	4	Index	4
89.3866666666667	0	n/a	53633	KeyDown	41324	1	Little	4
90.4250000000000	0	n/a	54256	KeyDown	41324	3	Middle	4
90.7133333333333	0	n/a	54429	KeyDown	41324	2	Ring	4
91.0816666666667	0	n/a	54650	KeyDown	41324	4	Index	4
91.6566666666667	0	n/a	54995	KeyDown	41324	4	Index	4
92.9600000000000	0	n/a	55777	KeyDown	41324	1	Little	4
93.4883333333333	0	n/a	56094	KeyDown	41324	3	Middle	4
93.7900000000000	0	n/a	56275	KeyDown	41324	2	Ring	4
94.0716666666667	0	n/a	56444	KeyDown	41324	4	Index	4
94.5950000000000	0	n/a	56758	KeyDown	41324	4	Index	4
94.7716666666667	0	n/a	56864	KeyDown	41324	1	Little	4
95.1616666666667	0	n/a	57098	KeyDown	41324	3	Middle	4
95.3550000000000	0	n/a	57214	KeyDown	41324	2	Ring	4
95.5900000000000	0	n/a	57355	StopPractice	41324	n/a	n/a	4
95.5916666666667	0	n/a	57356	StartRest	XXXXX	n/a	n/a	4
105.6266666666667	0	n/a	63377	StopRest	XXXXX	n/a	n/a	4
105.6283333333333	0	UPPT001	63378	StartPractice	41324	n/a	n/a	5
107.9166666666667	0	n/a	64751	KeyDown	41324	4	Index	5
108.1766666666667	0	n/a	64907	KeyDown	41324	1	Little	5
108.4500000000000	0	n/a	65071	KeyDown	41324	3	Middle	5
108.6400000000000	0	n/a	65185	KeyDown	41324	2	Ring	5
108.9250000000000	0	n/a	65356	KeyDown	41324	4	Index	5
109.5066666666667	0	n/a	65705	KeyDown	41324	4	Index	5
110.0600000000000	0	n/a	66037	KeyDown	41324	1	Little	5
110.4250000000000	0	n/a	66256	KeyDown	41324	3	Middle	5
110.6716666666667	0	n/a	66404	KeyDown	41324	2	Ring	5
110.9150000000000	0	n/a	66550	KeyDown	41324	4	Index	5
111.4283333333333	0	n/a	66858	KeyDown	41324	4	Index	5
111.6600000000000	0	n/a	66997	KeyDown	41324	1	Little	5
111.9233333333333	0	n/a	67155	KeyDown	41324	3	Middle	5
112.1766666666667	0	n/a	67307	KeyDown	41324	2	Ring	5
112.3600000000000	0	n/a	67417	KeyDown	41324	4	Index	5
112.7400000000000	0	n/a	67645	KeyDown	41324	4	Index	5
112.9433333333333	0	n/a	67767	KeyDown	41324	1	Little	5
113.4900000000000	0	n/a	68095	KeyDown	41324	3	Middle	5
113.7300000000000	0	n/a	68239	KeyDown	41324	2	Ring	5
113.9216666666667	0	n/a	68354	KeyDown	41324	4	Index	5
115.0550000000000	0	n/a	69034	KeyDown	41324	4	Index	5
115.2100000000000	0	n/a	69127	KeyDown	41324	1	Little	5
115.4600000000000	0	n/a	69277	KeyDown	41324	3	Middle	5
115.6366666666667	0	n/a	69383	KeyDown	41324	2	Ring	5
115.6666666666667	0	n/a	69401	StopPractice	41324	n/a	n/a	5
115.6683333333333	0	n/a	69402	StartRest	XXXXX	n/a	n/a	5
125.7000000000000	0	n/a	75421	StopRest	XXXXX	n/a	n/a	5
125.7016666666667	0	UPPT001	75422	StartPractice	41324	n/a	n/a	6
126.3400000000000	0	n/a	75805	KeyDown	41324	4	Index	6
126.5183333333333	0	n/a	75912	KeyDown	41324	1	Little	6
126.7850000000000	0	n/a	76072	KeyDown	41324	3	Middle	6
126.9783333333333	0	n/a	76188	KeyDown	41324	2	Ring	6
127.1700000000000	0	n/a	76303	KeyDown	41324	4	Index	6
127.4516666666667	0	n/a	76472	KeyDown	41324	4	Index	6
127.5950000000000	0	n/a	76558	KeyDown	41324	1	Little	6
128.0433333333334	0	n/a	76827	KeyDown	41324	3	Middle	6
128.2833333333333	0	n/a	76971	KeyDown	41324	2	Ring	6
128.4933333333333	0	n/a	77097	KeyDown	41324	4	Index	6
128.8583333333333	0	n/a	77316	KeyDown	41324	4	Index	6
129.0250000000000	0	n/a	77416	KeyDown	41324	1	Little	6
129.4333333333333	0	n/a	77661	KeyDown	41324	3	Middle	6
129.7866666666667	0	n/a	77873	KeyDown	41324	2	Ring	6
130.0666666666667	0	n/a	78041	KeyDown	41324	4	Index	6
130.6883333333333	0	n/a	78414	KeyDown	41324	4	Index	6
130.9500000000000	0	n/a	78571	KeyDown	41324	1	Little	6
132.8016666666667	0	n/a	79682	KeyDown	41324	3	Middle	6
133.1066666666667	0	n/a	79865	KeyDown	41324	2	Ring	6
133.4233333333333	0	n/a	80055	KeyDown	41324	4	Index	6
133.8950000000000	0	n/a	80338	KeyDown	41324	4	Index	6
134.1283333333333	0	n/a	80478	KeyDown	41324	1	Little	6
134.5633333333333	0	n/a	80739	KeyDown	41324	3	Middle	6
134.8516666666667	0	n/a	80912	KeyDown	41324	2	Ring	6
135.1116666666667	0	n/a	81068	KeyDown	41324	4	Index	6
135.7400000000000	0	n/a	81445	StopPractice	41324	n/a	n/a	6
135.7416666666667	0	n/a	81446	StartRest	XXXXX	n/a	n/a	6
145.7750000000000	0	n/a	87466	StopRest	XXXXX	n/a	n/a	6
145.7766666666667	0	UPPT001	87467	StartPractice	41324	n/a	n/a	7
146.6150000000000	0	n/a	87970	KeyDown	41324	4	Index	7
146.8200000000000	0	n/a	88093	KeyDown	41324	1	Little	7
147.2266666666667	0	n/a	88337	KeyDown	41324	3	Middle	7
147.4766666666667	0	n/a	88487	KeyDown	41324	2	Ring	7
147.7200000000000	0	n/a	88633	KeyDown	41324	4	Index	7
148.1683333333334	0	n/a	88902	KeyDown	41324	4	Index	7
148.3933333333333	0	n/a	89037	KeyDown	41324	1	Little	7
148.6783333333333	0	n/a	89208	KeyDown	41324	3	Middle	7
148.9350000000000	0	n/a	89362	KeyDown	41324	2	Ring	7
149.1583333333333	0	n/a	89496	KeyDown	41324	4	Index	7
149.6050000000000	0	n/a	89764	KeyDown	41324	4	Index	7
149.9833333333333	0	n/a	89991	KeyDown	41324	1	Little	7
150.5550000000000	0	n/a	90334	KeyDown	41324	3	Middle	7
150.8150000000000	0	n/a	90490	KeyDown	41324	2	Ring	7
151.0716666666667	0	n/a	90644	KeyDown	41324	4	Index	7
151.4783333333334	0	n/a	90888	KeyDown	41324	4	Index	7
151.6900000000000	0	n/a	91015	KeyDown	41324	1	Little	7
151.9483333333334	0	n/a	91170	KeyDown	41324	3	Middle	7
152.1816666666667	0	n/a	91310	KeyDown	41324	2	Ring	7
152.4200000000000	0	n/a	91453	KeyDown	41324	4	Index	7
152.8233333333334	0	n/a	91695	KeyDown	41324	4	Index	7
153.0116666666667	0	n/a	91808	KeyDown	41324	1	Little	7
153.4850000000000	0	n/a	92092	KeyDown	41324	3	Middle	7
153.7450000000000	0	n/a	92248	KeyDown	41324	2	Ring	7
153.9933333333333	0	n/a	92397	KeyDown	41324	4	Index	7
154.9650000000000	0	n/a	92980	KeyDown	41324	1	Little	7
155.6000000000000	0	n/a	93361	KeyDown	41324	4	Index	7
155.8150000000000	0	n/a	93490	StopPractice	41324	n/a	n/a	7
155.8166666666667	0	n/a	93491	StartRest	XXXXX	n/a	n/a	7
165.8500000000000	0	n/a	99511	StopRest	XXXXX	n/a	n/a	7
165.8516666666667	0	UPPT001	99512	StartPractice	41324	n/a	n/a	8
166.4983333333333	0	n/a	99900	KeyDown	41324	4	Index	8
166.6633333333334	0	n/a	99999	KeyDown	41324	1	Little	8
166.9433333333334	0	n/a	100167	KeyDown	41324	3	Middle	8
167.1200000000000	0	n/a	100273	KeyDown	41324	2	Ring	8
167.3250000000000	0	n/a	100396	KeyDown	41324	4	Index	8
167.6483333333333	0	n/a	100590	KeyDown	41324	4	Index	8
167.8216666666667	0	n/a	100694	KeyDown	41324	1	Little	8
168.3733333333333	0	n/a	101025	KeyDown	41324	3	Middle	8
168.6100000000000	0	n/a	101167	KeyDown	41324	2	Ring	8
168.8400000000000	0	n/a	101305	KeyDown	41324	4	Index	8
169.3416666666667	0	n/a	101606	KeyDown	41324	4	Index	8
169.7183333333333	0	n/a	101832	KeyDown	41324	1	Little	8
170.4533333333333	0	n/a	102273	KeyDown	41324	3	Middle	8
170.7283333333334	0	n/a	102438	KeyDown	41324	2	Ring	8
171.0916666666667	0	n/a	102656	KeyDown	41324	4	Index	8
171.6733333333333	0	n/a	103005	KeyDown	41324	4	Index	8
171.9316666666667	0	n/a	103160	KeyDown	41324	1	Little	8
172.2716666666667	0	n/a	103364	KeyDown	41324	3	Middle	8
172.4716666666667	0	n/a	103484	KeyDown	41324	2	Ring	8
172.6966666666667	0	n/a	103619	KeyDown	41324	4	Index	8
173.1816666666667	0	n/a	103910	KeyDown	41324	4	Index	8
173.4316666666667	0	n/a	104060	KeyDown	41324	1	Little	8
173.7716666666667	0	n/a	104264	KeyDown	41324	3	Middle	8
174.0033333333333	0	n/a	104403	KeyDown	41324	2	Ring	8
174.2333333333333	0	n/a	104541	KeyDown	41324	4	Index	8
174.9800000000000	0	n/a	104989	KeyDown	41324	4	Index	8
175.2166666666667	0	n/a	105131	KeyDown	41324	1	Little	8
175.6183333333333	0	n/a	105372	KeyDown	41324	3	Middle	8
175.8900000000000	0	n/a	105535	StopPractice	41324	n/a	n/a	8
175.8916666666667	0	n/a	105536	StartRest	XXXXX	n/a	n/a	8
185.9250000000000	0	n/a	111556	StopRest	XXXXX	n/a	n/a	8
185.9266666666667	0	UPPT001	111557	StartPractice	41324	n/a	n/a	9
187.3933333333333	0	n/a	112437	KeyDown	41324	4	Index	9
187.5466666666667	0	n/a	112529	KeyDown	41324	1	Little	9
187.8250000000000	0	n/a	112696	KeyDown	41324	3	Middle	9
187.9933333333333	0	n/a	112797	KeyDown	41324	2	Ring	9
188.1983333333334	0	n/a	112920	KeyDown	41324	4	Index	9
188.5583333333333	0	n/a	113136	KeyDown	41324	4	Index	9
188.7233333333334	0	n/a	113235	KeyDown	41324	1	Little	9
189.3200000000000	0	n/a	113593	KeyDown	41324	3	Middle	9
189.5433333333334	0	n/a	113727	KeyDown	41324	2	Ring	9
189.8100000000000	0	n/a	113887	KeyDown	41324	4	Index	9
190.3833333333334	0	n/a	114231	KeyDown	41324	4	Index	9
190.6500000000000	0	n/a	114391	KeyDown	41324	1	Little	9
191.1250000000000	0	n/a	114676	KeyDown	41324	3	Middle	9
191.3550000000000	0	n/a	114814	KeyDown	41324	2	Ring	9
191.6000000000000	0	n/a	114961	KeyDown	41324	4	Index	9
192.0550000000000	0	n/a	115234	KeyDown	41324	4	Index	9
192.2900000000000	0	n/a	115375	KeyDown	41324	1	Little	9
192.6200000000000	0	n/a	115573	KeyDown	41324	3	Middle	9
192.8916666666667	0	n/a	115736	KeyDown	41324	2	Ring	9
193.1450000000000	0	n/a	115888	KeyDown	41324	4	Index	9
193.4000000000000	0	n/a	116041	KeyDown	41324	4	Index	9
193.9566666666667	0	n/a	116375	KeyDown	41324	1	Little	9
194.4833333333333	0	n/a	116691	KeyDown	41324	3	Middle	9
194.8966666666667	0	n/a	116939	KeyDown	41324	2	Ring	9
195.9266666666667	0	n/a	117557	KeyDown	41324	4	Index	9
195.9650000000000	0	n/a	117580	StopPractice	41324	n/a	n/a	9
195.9666666666667	0	n/a	117581	StartRest	XXXXX	n/a	n/a	9
206.0000000000000	0	n/a	123601	StopRest	XXXXX	n/a	n/a	9
206.0016666666667	0	UPPT001	123602	StartPractice	41324	n/a	n/a	10
207.5400000000000	0	n/a	124525	KeyDown	41324	4	Index	10
207.7700000000000	0	n/a	124663	KeyDown	41324	1	Little	10
208.1083333333333	0	n/a	124866	KeyDown	41324	3	Middle	10
208.3616666666667	0	n/a	125018	KeyDown	41324	2	Ring	10
208.7150000000000	0	n/a	125230	KeyDown	41324	4	Index	10
209.2900000000000	0	n/a	125575	KeyDown	41324	4	Index	10
209.5416666666667	0	n/a	125726	KeyDown	41324	1	Little	10
209.9350000000000	0	n/a	125962	KeyDown	41324	3	Middle	10
210.1650000000000	0	n/a	126100	KeyDown	41324	2	Ring	10
210.4583333333333	0	n/a	126276	KeyDown	41324	4	Index	10
210.9333333333333	0	n/a	126561	KeyDown	41324	4	Index	10
211.1750000000000	0	n/a	126706	KeyDown	41324	1	Little	10
211.4983333333333	0	n/a	126900	KeyDown	41324	3	Middle	10
211.7433333333333	0	n/a	127047	KeyDown	41324	2	Ring	10
212.0033333333334	0	n/a	127203	KeyDown	41324	4	Index	10
212.4600000000000	0	n/a	127477	KeyDown	41324	4	Index	10
212.6950000000000	0	n/a	127618	KeyDown	41324	1	Little	10
213.1900000000000	0	n/a	127915	KeyDown	41324	3	Middle	10
213.4366666666667	0	n/a	128063	KeyDown	41324	2	Ring	10
213.6950000000000	0	n/a	128218	KeyDown	41324	4	Index	10
214.1783333333333	0	n/a	128508	KeyDown	41324	4	Index	10
214.4350000000000	0	n/a	128662	KeyDown	41324	1	Little	10
214.6983333333334	0	n/a	128820	KeyDown	41324	3	Middle	10
214.9716666666667	0	n/a	128984	KeyDown	41324	2	Ring	10
215.2533333333334	0	n/a	129153	KeyDown	41324	4	Index	10
216.0400000000000	0	n/a	129625	StopPractice	41324	n/a	n/a	10
216.0416666666667	0	n/a	129626	StartRest	XXXXX	n/a	n/a	10
226.0733333333334	0	n/a	135645	StopRest	XXXXX	n/a	n/a	10
226.0750000000000	0	UPPT001	135646	StartPractice	41324	n/a	n/a	11
226.6083333333333	0	n/a	135966	KeyDown	41324	4	Index	11
227.1416666666667	0	n/a	136286	KeyDown	41324	1	Little	11
227.7883333333334	0	n/a	136674	KeyDown	41324	3	Middle	11
228.1133333333333	0	n/a	136869	KeyDown	41324	2	Ring	11
228.3950000000000	0	n/a	137038	KeyDown	41324	4	Index	11
228.6866666666667	0	n/a	137213	KeyDown	41324	4	Index	11
228.8966666666667	0	n/a	137339	KeyDown	41324	1	Little	11
229.2383333333333	0	n/a	137544	KeyDown	41324	3	Middle	11
229.4400000000000	0	n/a	137665	KeyDown	41324	2	Ring	11
229.6533333333333	0	n/a	137793	KeyDown	41324	4	Index	11
229.8833333333334	0	n/a	137931	KeyDown	41324	4	Index	11
230.2233333333334	0	n/a	138135	KeyDown	41324	1	Little	11
231.7066666666667	0	n/a	139025	KeyDown	41324	4	Index	11
231.9133333333334	0	n/a	139149	KeyDown	41324	1	Little	11
232.2666666666667	0	n/a	139361	KeyDown	41324	3	Middle	11
232.5016666666667	0	n/a	139502	KeyDown	41324	2	Ring	11
232.7416666666667	0	n/a	139646	KeyDown	41324	4	Index	11
233.1133333333333	0	n/a	139869	KeyDown	41324	4	Index	11
233.6050000000000	0	n/a	140164	KeyDown	41324	1	Little	11
233.9600000000000	0	n/a	140377	KeyDown	41324	3	Middle	11
234.1766666666667	0	n/a	140507	KeyDown	41324	2	Ring	11
234.3983333333333	0	n/a	140640	KeyDown	41324	4	Index	11
234.7450000000000	0	n/a	140848	KeyDown	41324	4	Index	11
235.0633333333334	0	n/a	141039	KeyDown	41324	1	Little	11
235.5033333333334	0	n/a	141303	KeyDown	41324	3	Middle	11
235.7033333333333	0	n/a	141423	KeyDown	41324	2	Ring	11
235.9216666666667	0	n/a	141554	KeyDown	41324	4	Index	11
236.1133333333333	0	n/a	141669	StopPractice	41324	n/a	n/a	11
236.1150000000000	0	n/a	141670	StartRest	XXXXX	n/a	n/a	11
246.1500000000000	0	n/a	147691	StopRest	XXXXX	n/a	n/a	11
246.1516666666667	0	UPPT001	147692	StartPractice	41324	n/a	n/a	12
246.6800000000000	0	n/a	148009	KeyDown	41324	4	Index	12
246.9450000000000	0	n/a	148168	KeyDown	41324	1	Little	12
247.2333333333333	0	n/a	148341	KeyDown	41324	3	Middle	12
247.4083333333334	0	n/a	148446	KeyDown	41324	2	Ring	12
247.6816666666667	0	n/a	148610	KeyDown	41324	4	Index	12
247.9450000000000	0	n/a	148768	KeyDown	41324	4	Index	12
248.6350000000000	0	n/a	149182	KeyDown	41324	1	Little	12
248.9900000000000	0	n/a	149395	KeyDown	41324	3	Middle	12
249.2450000000000	0	n/a	149548	KeyDown	41324	2	Ring	12
249.5216666666667	0	n/a	149714	KeyDown	41324	4	Index	12
250.3016666666667	0	n/a	150182	KeyDown	41324	4	Index	12
250.5400000000000	0	n/a	150325	KeyDown	41324	1	Little	12
250.8550000000000	0	n/a	150514	KeyDown	41324	3	Middle	12
251.1033333333334	0	n/a	150663	KeyDown	41324	2	Ring	12
251.3466666666667	0	n/a	150809	KeyDown	41324	4	Index	12
251.9983333333334	0	n/a	151200	KeyDown	41324	4	Index	12
252.2233333333334	0	n/a	151335	KeyDown	41324	1	Little	12
252.4866666666667	0	n/a	151493	KeyDown	41324	3	Middle	12
252.6866666666667	0	n/a	151613	KeyDown	41324	2	Ring	12
252.9566666666667	0	n/a	151775	KeyDown	41324	4	Index	12
253.5700000000000	0	n/a	152143	KeyDown	41324	4	Index	12
253.7616666666667	0	n/a	152258	KeyDown	41324	1	Little	12
254.0383333333334	0	n/a	152424	KeyDown	41324	3	Middle	12
254.2400000000000	0	n/a	152545	KeyDown	41324	2	Ring	12
254.4800000000000	0	n/a	152689	KeyDown	41324	4	Index	12
254.9716666666667	0	n/a	152984	KeyDown	41324	4	Index	12
255.1883333333334	0	n/a	153114	KeyDown	41324	1	Little	12
255.6733333333333	0	n/a	153405	KeyDown	41324	3	Middle	12
255.8600000000000	0	n/a	153517	KeyDown	41324	2	Ring	12
256.1316666666667	0	n/a	153680	KeyDown	41324	4	Index	12
256.1900000000000	0	n/a	153715	StopPractice	41324	n/a	n/a	12
256.1916666666667	0	n/a	153716	StartRest	XXXXX	n/a	n/a	12
266.2250000000000	0	n/a	159736	StopRest	XXXXX	n/a	n/a	12
266.2266666666667	0	UPPT001	159737	StartPractice	41324	n/a	n/a	13
266.6266666666667	0	n/a	159977	KeyDown	41324	1	Little	13
266.8816666666667	0	n/a	160130	KeyDown	41324	4	Index	13
267.6733333333333	0	n/a	160605	KeyDown	41324	3	Middle	13
267.9233333333333	0	n/a	160755	KeyDown	41324	2	Ring	13
268.2383333333333	0	n/a	160944	KeyDown	41324	4	Index	13
268.8150000000000	0	n/a	161290	KeyDown	41324	4	Index	13
269.0683333333333	0	n/a	161442	KeyDown	41324	1	Little	13
269.4450000000000	0	n/a	161668	KeyDown	41324	3	Middle	13
269.7116666666667	0	n/a	161828	KeyDown	41324	2	Ring	13
269.9983333333333	0	n/a	162000	KeyDown	41324	4	Index	13
270.4850000000000	0	n/a	162292	KeyDown	41324	1	Little	13
270.7566666666667	0	n/a	162455	KeyDown	41324	4	Index	13
271.0150000000000	0	n/a	162610	KeyDown	41324	3	Middle	13
271.2500000000000	0	n/a	162751	KeyDown	41324	2	Ring	13
271.5300000000000	0	n/a	162919	KeyDown	41324	4	Index	13
272.1600000000000	0	n/a	163297	KeyDown	41324	4	Index	13
272.3883333333334	0	n/a	163434	KeyDown	41324	1	Little	13
272.6916666666667	0	n/a	163616	KeyDown	41324	3	Middle	13
272.9400000000000	0	n/a	163765	KeyDown	41324	2	Ring	13
273.1950000000000	0	n/a	163918	KeyDown	41324	4	Index	13
273.7750000000000	0	n/a	164266	KeyDown	41324	4	Index	13
274.0100000000000	0	n/a	164407	KeyDown	41324	1	Little	13
274.3000000000000	0	n/a	164581	KeyDown	41324	3	Middle	13
274.5300000000000	0	n/a	164719	KeyDown	41324	2	Ring	13
274.8133333333333	0	n/a	164889	KeyDown	41324	4	Index	13
275.3400000000000	0	n/a	165205	KeyDown	41324	4	Index	13
275.5466666666667	0	n/a	165329	KeyDown	41324	1	Little	13
275.8383333333334	0	n/a	165504	KeyDown	41324	3	Middle	13
276.0683333333333	0	n/a	165642	KeyDown	41324	2	Ring	13
276.2650000000000	0	n/a	165760	StopPractice	41324	n/a	n/a	13
276.2666666666667	0	n/a	165761	StartRest	XXXXX	n/a	n/a	13
286.2983333333333	0	n/a	171780	StopRest	XXXXX	n/a	n/a	13
286.3000000000000	0	UPPT001	171781	StartPractice	41324	n/a	n/a	14
286.7616666666667	0	n/a	172058	KeyDown	41324	4	Index	14
286.9116666666667	0	n/a	172148	KeyDown	41324	1	Little	14
287.1916666666667	0	n/a	172316	KeyDown	41324	3	Middle	14
287.3683333333333	0	n/a	172422	KeyDown	41324	2	Ring	14
287.8133333333333	0	n/a	172689	KeyDown	41324	4	Index	14
288.3533333333334	0	n/a	173013	KeyDown	41324	4	Index	14
288.5200000000000	0	n/a	173113	KeyDown	41324	1	Little	14
288.8500000000000	0	n/a	173311	KeyDown	41324	3	Middle	14
289.0766666666667	0	n/a	173447	KeyDown	41324	2	Ring	14
289.2916666666667	0	n/a	173576	KeyDown	41324	4	Index	14
289.6466666666667	0	n/a	173789	KeyDown	41324	4	Index	14
289.7983333333333	0	n/a	173880	KeyDown	41324	1	Little	14
290.0900000000000	0	n/a	174055	KeyDown	41324	3	Middle	14
290.2783333333334	0	n/a	174168	KeyDown	41324	2	Ring	14
290.4916666666667	0	n/a	174296	KeyDown	41324	4	Index	14
290.8783333333333	0	n/a	174528	KeyDown	41324	4	Index	14
291.0183333333334	0	n/a	174612	KeyDown	41324	1	Little	14
291.3533333333334	0	n/a	174813	KeyDown	41324	3	Middle	14
291.5466666666667	0	n/a	174929	KeyDown	41324	2	Ring	14
291.7533333333333	0	n/a	175053	KeyDown	41324	4	Index	14
292.1283333333333	0	n/a	175278	KeyDown	41324	4	Index	14
292.3183333333333	0	n/a	175392	KeyDown	41324	1	Little	14
292.6833333333333	0	n/a	175611	KeyDown	41324	3	Middle	14
292.8733333333333	0	n/a	175725	KeyDown	41324	2	Ring	14
293.0966666666667	0	n/a	175859	KeyDown	41324	4	Index	14
293.5050000000000	0	n/a	176104	KeyDown	41324	4	Index	14
293.7866666666667	0	n/a	176273	KeyDown	41324	1	Little	14
294.4066666666667	0	n/a	176645	KeyDown	41324	3	Middle	14
294.5733333333334	0	n/a	176745	KeyDown	41324	2	Ring	14
294.8050000000000	0	n/a	176884	KeyDown	41324	4	Index	14
295.2300000000000	0	n/a	177139	KeyDown	41324	4	Index	14
295.3833333333333	0	n/a	177231	KeyDown	41324	1	Little	14
295.7483333333333	0	n/a	177450	KeyDown	41324	3	Middle	14
295.9166666666667	0	n/a	177551	KeyDown	41324	2	Ring	14
296.1083333333333	0	n/a	177666	KeyDown	41324	4	Index	14
296.3383333333334	0	n/a	177804	StopPractice	41324	n/a	n/a	14
296.3400000000000	0	n/a	177805	StartRest	XXXXX	n/a	n/a	14
306.3733333333333	0	n/a	183825	StopRest	XXXXX	n/a	n/a	14
306.3750000000000	0	UPPT001	183826	StartPractice	41324	n/a	n/a	15
306.8366666666667	0	n/a	184103	KeyDown	41324	4	Index	15
306.9783333333334	0	n/a	184188	KeyDown	41324	1	Little	15
307.2533333333333	0	n/a	184353	KeyDown	41324	3	Middle	15
307.4116666666667	0	n/a	184448	KeyDown	41324	2	Ring	15
307.5966666666667	0	n/a	184559	KeyDown	41324	4	Index	15
307.8850000000000	0	n/a	184732	KeyDown	41324	4	Index	15
308.0233333333334	0	n/a	184815	KeyDown	41324	1	Little	15
308.3183333333333	0	n/a	184992	KeyDown	41324	3	Middle	15
308.4933333333333	0	n/a	185097	KeyDown	41324	2	Ring	15
308.6783333333333	0	n/a	185208	KeyDown	41324	4	Index	15
308.9816666666667	0	n/a	185390	KeyDown	41324	4	Index	15
309.1100000000000	0	n/a	185467	KeyDown	41324	1	Little	15
309.4266666666667	0	n/a	185657	KeyDown	41324	3	Middle	15
309.5816666666667	0	n/a	185750	KeyDown	41324	2	Ring	15
309.7733333333334	0	n/a	185865	KeyDown	41324	4	Index	15
310.0683333333333	0	n/a	186042	KeyDown	41324	4	Index	15
310.5583333333333	0	n/a	186336	KeyDown	41324	1	Little	15
310.9183333333334	0	n/a	186552	KeyDown	41324	3	Middle	15
311.2566666666667	0	n/a	186755	KeyDown	41324	2	Ring	15
311.4816666666667	0	n/a	186890	KeyDown	41324	4	Index	15
311.8666666666667	0	n/a	187121	KeyDown	41324	4	Index	15
312.0266666666667	0	n/a	187217	KeyDown	41324	1	Little	15
312.3783333333333	0	n/a	187428	KeyDown	41324	3	Middle	15
312.5600000000000	0	n/a	187537	KeyDown	41324	2	Ring	15
312.7466666666667	0	n/a	187649	KeyDown	41324	4	Index	15
313.1350000000000	0	n/a	187882	KeyDown	41324	4	Index	15
313.2800000000000	0	n/a	187969	KeyDown	41324	1	Little	15
313.6516666666667	0	n/a	188192	KeyDown	41324	3	Middle	15
313.8233333333334	0	n/a	188295	KeyDown	41324	2	Ring	15
314.0366666666667	0	n/a	188423	KeyDown	41324	4	Index	15
314.3933333333334	0	n/a	188637	KeyDown	41324	4	Index	15
314.5316666666667	0	n/a	188720	KeyDown	41324	1	Little	15
314.9233333333333	0	n/a	188955	KeyDown	41324	3	Middle	15
315.0666666666667	0	n/a	189041	KeyDown	41324	2	Ring	15
315.2866666666667	0	n/a	189173	KeyDown	41324	4	Index	15
315.6100000000000	0	n/a	189367	KeyDown	41324	4	Index	15
315.8166666666667	0	n/a	189491	KeyDown	41324	1	Little	15
316.1866666666667	0	n/a	189713	KeyDown	41324	3	Middle	15
316.3566666666667	0	n/a	189815	KeyDown	41324	2	Ring	15
316.4133333333334	0	n/a	189849	StopPractice	41324	n/a	n/a	15
316.4150000000000	0	n/a	189850	StartRest	XXXXX	n/a	n/a	15
326.4483333333334	0	n/a	195870	StopRest	XXXXX	n/a	n/a	15
326.4500000000000	0	UPPT001	195871	StartPractice	41324	n/a	n/a	16
326.8983333333334	0	n/a	196140	KeyDown	41324	4	Index	16
327.0633333333333	0	n/a	196239	KeyDown	41324	1	Little	16
327.3233333333334	0	n/a	196395	KeyDown	41324	3	Middle	16
327.4916666666667	0	n/a	196496	KeyDown	41324	2	Ring	16
327.6933333333333	0	n/a	196617	KeyDown	41324	4	Index	16
327.9300000000000	0	n/a	196759	KeyDown	41324	4	Index	16
328.0766666666667	0	n/a	196847	KeyDown	41324	1	Little	16
328.3366666666667	0	n/a	197003	KeyDown	41324	3	Middle	16
328.5233333333334	0	n/a	197115	KeyDown	41324	2	Ring	16
328.7283333333334	0	n/a	197238	KeyDown	41324	4	Index	16
328.9416666666667	0	n/a	197366	KeyDown	41324	4	Index	16
329.1466666666667	0	n/a	197489	KeyDown	41324	1	Little	16
329.5266666666667	0	n/a	197717	KeyDown	41324	3	Middle	16
329.7550000000000	0	n/a	197854	KeyDown	41324	2	Ring	16
329.9616666666667	0	n/a	197978	KeyDown	41324	4	Index	16
330.1716666666667	0	n/a	198104	KeyDown	41324	4	Index	16
330.3316666666667	0	n/a	198200	KeyDown	41324	1	Little	16
330.7183333333334	0	n/a	198432	KeyDown	41324	3	Middle	16
330.8816666666667	0	n/a	198530	KeyDown	41324	2	Ring	16
331.0783333333334	0	n/a	198648	KeyDown	41324	4	Index	16
331.3883333333334	0	n/a	198834	KeyDown	41324	4	Index	16
331.5450000000000	0	n/a	198928	KeyDown	41324	1	Little	16
331.8650000000000	0	n/a	199120	KeyDown	41324	3	Middle	16
332.0333333333334	0	n/a	199221	KeyDown	41324	2	Ring	16
332.2483333333333	0	n/a	199350	KeyDown	41324	4	Index	16
332.6750000000000	0	n/a	199606	KeyDown	41324	4	Index	16
333.0483333333333	0	n/a	199830	KeyDown	41324	1	Little	16
333.3416666666667	0	n/a	200006	KeyDown	41324	3	Middle	16
333.4983333333333	0	n/a	200100	KeyDown	41324	2	Ring	16
333.7100000000000	0	n/a	200227	KeyDown	41324	4	Index	16
334.1283333333333	0	n/a	200478	KeyDown	41324	4	Index	16
334.4600000000000	0	n/a	200677	KeyDown	41324	3	Middle	16
334.8716666666667	0	n/a	200924	KeyDown	41324	2	Ring	16
335.4083333333334	0	n/a	201246	KeyDown	41324	4	Index	16
335.6283333333333	0	n/a	201378	KeyDown	41324	1	Little	16
336.4883333333333	0	n/a	201894	StopPractice	41324	n/a	n/a	16
336.4900000000000	0	n/a	201895	StartRest	XXXXX	n/a	n/a	16
346.5233333333334	0	n/a	207915	StopRest	XXXXX	n/a	n/a	16
346.5250000000000	0	UPPT001	207916	StartPractice	41324	n/a	n/a	17
347.0150000000000	0	n/a	208210	KeyDown	41324	4	Index	17
347.1800000000000	0	n/a	208309	KeyDown	41324	1	Little	17
347.4416666666667	0	n/a	208466	KeyDown	41324	3	Middle	17
347.6100000000000	0	n/a	208567	KeyDown	41324	2	Ring	17
347.8066666666667	0	n/a	208685	KeyDown	41324	4	Index	17
348.0883333333334	0	n/a	208854	KeyDown	41324	4	Index	17
348.2416666666667	0	n/a	208946	KeyDown	41324	1	Little	17
348.5383333333334	0	n/a	209124	KeyDown	41324	3	Middle	17
348.6916666666667	0	n/a	209216	KeyDown	41324	2	Ring	17
348.8966666666667	0	n/a	209339	KeyDown	41324	4	Index	17
349.2266666666667	0	n/a	209537	KeyDown	41324	4	Index	17
349.3716666666667	0	n/a	209624	KeyDown	41324	1	Little	17
349.6750000000000	0	n/a	209806	KeyDown	41324	3	Middle	17
349.8333333333334	0	n/a	209901	KeyDown	41324	2	Ring	17
350.0416666666667	0	n/a	210026	KeyDown	41324	4	Index	17
350.3616666666667	0	n/a	210218	KeyDown	41324	4	Index	17
350.5216666666667	0	n/a	210314	KeyDown	41324	1	Little	17
350.8383333333334	0	n/a	210504	KeyDown	41324	3	Middle	17
351.0216666666667	0	n/a	210614	KeyDown	41324	2	Ring	17
351.2366666666667	0	n/a	210743	KeyDown	41324	4	Index	17
351.5416666666667	0	n/a	210926	KeyDown	41324	4	Index	17
351.6933333333333	0	n/a	211017	KeyDown	41324	1	Little	17
352.0516666666667	0	n/a	211232	KeyDown	41324	3	Middle	17
352.2250000000000	0	n/a	211336	KeyDown	41324	2	Ring	17
352.4333333333333	0	n/a	211461	KeyDown	41324	4	Index	17
352.7516666666667	0	n/a	211652	KeyDown	41324	4	Index	17
352.9083333333334	0	n/a	211746	KeyDown	41324	1	Little	17
353.2833333333334	0	n/a	211971	KeyDown	41324	3	Middle	17
353.4616666666667	0	n/a	212078	KeyDown	41324	2	Ring	17
353.6550000000000	0	n/a	212194	KeyDown	41324	4	Index	17
353.9600000000000	0	n/a	212377	KeyDown	41324	4	Index	17
354.1200000000000	0	n/a	212473	KeyDown	41324	1	Little	17
354.4433333333333	0	n/a	212667	KeyDown	41324	3	Middle	17
354.6066666666667	0	n/a	212765	KeyDown	41324	2	Ring	17
354.8116666666667	0	n/a	212888	KeyDown	41324	4	Index	17
355.0816666666667	0	n/a	213050	KeyDown	41324	4	Index	17
355.2433333333333	0	n/a	213147	KeyDown	41324	1	Little	17
355.5783333333334	0	n/a	213348	KeyDown	41324	3	Middle	17
355.7783333333334	0	n/a	213468	KeyDown	41324	2	Ring	17
356.0016666666667	0	n/a	213602	KeyDown	41324	4	Index	17
356.3066666666667	0	n/a	213785	KeyDown	41324	4	Index	17
356.4583333333334	0	n/a	213876	KeyDown	41324	1	Little	17
356.5633333333333	0	n/a	213939	StopPractice	41324	n/a	n/a	17
356.5650000000000	0	n/a	213940	StartRest	XXXXX	n/a	n/a	17
366.5983333333334	0	n/a	219960	StopRest	XXXXX	n/a	n/a	17
366.6000000000000	0	UPPT001	219961	StartPractice	41324	n/a	n/a	18
367.3916666666667	0	n/a	220436	KeyDown	41324	4	Index	18
367.5066666666667	0	n/a	220505	KeyDown	41324	1	Little	18
367.7166666666667	0	n/a	220631	KeyDown	41324	3	Middle	18
367.8683333333333	0	n/a	220722	KeyDown	41324	2	Ring	18
368.0716666666667	0	n/a	220844	KeyDown	41324	4	Index	18
368.2783333333334	0	n/a	220968	KeyDown	41324	4	Index	18
368.4083333333334	0	n/a	221046	KeyDown	41324	3	Middle	18
368.6016666666667	0	n/a	221162	KeyDown	41324	2	Ring	18
369.4433333333334	0	n/a	221667	KeyDown	41324	1	Little	18
369.7566666666667	0	n/a	221855	KeyDown	41324	4	Index	18
370.3116666666667	0	n/a	222188	KeyDown	41324	4	Index	18
370.4666666666667	0	n/a	222281	KeyDown	41324	1	Little	18
370.7683333333334	0	n/a	222462	KeyDown	41324	3	Middle	18
370.9350000000000	0	n/a	222562	KeyDown	41324	2	Ring	18
371.1333333333334	0	n/a	222681	KeyDown	41324	4	Index	18
371.4816666666667	0	n/a	222890	KeyDown	41324	4	Index	18
371.6216666666667	0	n/a	222974	KeyDown	41324	1	Little	18
371.8850000000000	0	n/a	223132	KeyDown	41324	3	Middle	18
371.9600000000000	0	n/a	223177	KeyDown	41324	2	Ring	18
372.2200000000000	0	n/a	223333	KeyDown	41324	4	Index	18
372.5466666666667	0	n/a	223529	KeyDown	41324	4	Index	18
372.6783333333333	0	n/a	223608	KeyDown	41324	1	Little	18
373.0250000000000	0	n/a	223816	KeyDown	41324	3	Middle	18
373.2283333333334	0	n/a	223938	KeyDown	41324	2	Ring	18
373.5083333333334	0	n/a	224106	KeyDown	41324	4	Index	18
374.0600000000000	0	n/a	224437	KeyDown	41324	1	Little	18
375.0666666666667	0	n/a	225041	KeyDown	41324	4	Index	18
375.2216666666667	0	n/a	225134	KeyDown	41324	1	Little	18
375.5133333333334	0	n/a	225309	KeyDown	41324	3	Middle	18
375.6966666666667	0	n/a	225419	KeyDown	41324	2	Ring	18
375.9133333333334	0	n/a	225549	KeyDown	41324	4	Index	18
376.6383333333334	0	n/a	225984	StopPractice	41324	n/a	n/a	18
376.6400000000000	0	n/a	225985	StartRest	XXXXX	n/a	n/a	18
386.6733333333333	0	n/a	232005	StopRest	XXXXX	n/a	n/a	18
386.6750000000000	0	UPPT001	232006	StartPractice	41324	n/a	n/a	19
387.3016666666667	0	n/a	232382	KeyDown	41324	4	Index	19
387.4716666666667	0	n/a	232484	KeyDown	41324	1	Little	19
387.8266666666667	0	n/a	232697	KeyDown	41324	3	Middle	19
388.0033333333333	0	n/a	232803	KeyDown	41324	2	Ring	19
388.2433333333333	0	n/a	232947	KeyDown	41324	4	Index	19
388.7016666666667	0	n/a	233222	KeyDown	41324	4	Index	19
388.8700000000000	0	n/a	233323	KeyDown	41324	1	Little	19
389.2283333333334	0	n/a	233538	KeyDown	41324	3	Middle	19
389.3983333333334	0	n/a	233640	KeyDown	41324	2	Ring	19
389.6000000000000	0	n/a	233761	KeyDown	41324	4	Index	19
389.9716666666667	0	n/a	233984	KeyDown	41324	4	Index	19
390.1283333333333	0	n/a	234078	KeyDown	41324	1	Little	19
390.4833333333333	0	n/a	234291	KeyDown	41324	3	Middle	19
390.6716666666667	0	n/a	234404	KeyDown	41324	2	Ring	19
390.8916666666667	0	n/a	234536	KeyDown	41324	4	Index	19
391.2716666666667	0	n/a	234764	KeyDown	41324	4	Index	19
391.4583333333334	0	n/a	234876	KeyDown	41324	1	Little	19
391.8233333333334	0	n/a	235095	KeyDown	41324	3	Middle	19
392.0566666666667	0	n/a	235235	KeyDown	41324	2	Ring	19
392.2950000000000	0	n/a	235378	KeyDown	41324	4	Index	19
392.6916666666667	0	n/a	235616	KeyDown	41324	4	Index	19
392.8516666666667	0	n/a	235712	KeyDown	41324	1	Little	19
393.6016666666667	0	n/a	236162	KeyDown	41324	3	Middle	19
393.8016666666667	0	n/a	236282	KeyDown	41324	2	Ring	19
394.1200000000000	0	n/a	236473	KeyDown	41324	4	Index	19
395.4366666666667	0	n/a	237263	KeyDown	41324	4	Index	19
395.5983333333334	0	n/a	237360	KeyDown	41324	1	Little	19
395.9933333333333	0	n/a	237597	KeyDown	41324	3	Middle	19
396.1883333333333	0	n/a	237714	KeyDown	41324	2	Ring	19
396.4183333333334	0	n/a	237852	KeyDown	41324	4	Index	19
396.7133333333334	0	n/a	238029	StopPractice	41324	n/a	n/a	19
396.7150000000000	0	n/a	238030	StartRest	XXXXX	n/a	n/a	19
406.7483333333333	0	n/a	244050	StopRest	XXXXX	n/a	n/a	19
406.7500000000000	0	UPPT001	244051	StartPractice	41324	n/a	n/a	20
407.2383333333333	0	n/a	244344	KeyDown	41324	4	Index	20
407.4133333333334	0	n/a	244449	KeyDown	41324	1	Little	20
407.6816666666667	0	n/a	244610	KeyDown	41324	3	Middle	20
407.8600000000000	0	n/a	244717	KeyDown	41324	2	Ring	20
408.0916666666667	0	n/a	244856	KeyDown	41324	4	Index	20
408.8750000000000	0	n/a	245326	KeyDown	41324	4	Index	20
409.0333333333334	0	n/a	245421	KeyDown	41324	1	Little	20
409.3466666666667	0	n/a	245609	KeyDown	41324	3	Middle	20
409.5783333333334	0	n/a	245748	KeyDown	41324	2	Ring	20
409.8133333333333	0	n/a	245889	KeyDown	41324	4	Index	20
410.2250000000000	0	n/a	246136	KeyDown	41324	4	Index	20
410.3650000000000	0	n/a	246220	KeyDown	41324	1	Little	20
410.7033333333334	0	n/a	246423	KeyDown	41324	3	Middle	20
410.8500000000000	0	n/a	246511	KeyDown	41324	2	Ring	20
411.0716666666667	0	n/a	246644	KeyDown	41324	4	Index	20
411.3983333333334	0	n/a	246840	KeyDown	41324	4	Index	20
411.5600000000000	0	n/a	246937	KeyDown	41324	3	Middle	20
412.7966666666667	0	n/a	247679	KeyDown	41324	4	Index	20
413.4966666666667	0	n/a	248099	KeyDown	41324	1	Little	20
414.3883333333334	0	n/a	248634	KeyDown	41324	4	Index	20
414.9416666666667	0	n/a	248966	KeyDown	41324	3	Middle	20
415.1816666666667	0	n/a	249110	KeyDown	41324	2	Ring	20
416.4216666666667	0	n/a	249854	KeyDown	41324	4	Index	20
416.5483333333333	0	n/a	249930	KeyDown	41324	1	Little	20
416.7883333333334	0	n/a	250074	StopPractice	41324	n/a	n/a	20
416.7900000000000	0	n/a	250075	StartRest	XXXXX	n/a	n/a	20
426.8216666666667	0	n/a	256094	StopRest	XXXXX	n/a	n/a	20
426.8233333333334	0	UPPT001	256095	StartPractice	41324	n/a	n/a	21
427.3716666666667	0	n/a	256424	KeyDown	41324	4	Index	21
427.6116666666667	0	n/a	256568	KeyDown	41324	1	Little	21
427.9066666666667	0	n/a	256745	KeyDown	41324	3	Middle	21
428.1466666666667	0	n/a	256889	KeyDown	41324	2	Ring	21
428.4366666666667	0	n/a	257063	KeyDown	41324	4	Index	21
428.7700000000000	0	n/a	257263	KeyDown	41324	4	Index	21
429.0233333333334	0	n/a	257415	KeyDown	41324	1	Little	21
429.3566666666667	0	n/a	257615	KeyDown	41324	3	Middle	21
429.6216666666667	0	n/a	257774	KeyDown	41324	2	Ring	21
429.9000000000000	0	n/a	257941	KeyDown	41324	4	Index	21
430.1716666666667	0	n/a	258104	KeyDown	41324	4	Index	21
430.4633333333334	0	n/a	258279	KeyDown	41324	1	Little	21
430.7333333333333	0	n/a	258441	KeyDown	41324	3	Middle	21
430.9700000000000	0	n/a	258583	KeyDown	41324	2	Ring	21
431.2366666666667	0	n/a	258743	KeyDown	41324	4	Index	21
431.5216666666667	0	n/a	258914	KeyDown	41324	4	Index	21
432.0283333333334	0	n/a	259218	KeyDown	41324	1	Little	21
432.6550000000000	0	n/a	259594	KeyDown	41324	3	Middle	21
432.8600000000000	0	n/a	259717	KeyDown	41324	2	Ring	21
433.1416666666667	0	n/a	259886	KeyDown	41324	4	Index	21
433.5116666666667	0	n/a	260108	KeyDown	41324	4	Index	21
433.7200000000000	0	n/a	260233	KeyDown	41324	1	Little	21
434.0250000000000	0	n/a	260416	KeyDown	41324	3	Middle	21
434.2400000000000	0	n/a	260545	KeyDown	41324	2	Ring	21
434.4900000000000	0	n/a	260695	KeyDown	41324	4	Index	21
434.8316666666667	0	n/a	260900	KeyDown	41324	4	Index	21
435.0116666666667	0	n/a	261008	KeyDown	41324	1	Little	21
435.3100000000000	0	n/a	261187	KeyDown	41324	3	Middle	21
435.5166666666667	0	n/a	261311	KeyDown	41324	2	Ring	21
435.7633333333334	0	n/a	261459	KeyDown	41324	4	Index	21
436.1666666666667	0	n/a	261701	KeyDown	41324	4	Index	21
436.3583333333333	0	n/a	261816	KeyDown	41324	1	Little	21
436.7016666666667	0	n/a	262022	KeyDown	41324	3	Middle	21
436.8616666666667	0	n/a	262118	StopPractice	41324	n/a	n/a	21
436.8633333333333	0	n/a	262119	StartRest	XXXXX	n/a	n/a	21
446.8983333333334	0	n/a	268140	StopRest	XXXXX	n/a	n/a	21
446.9000000000000	0	UPPT001	268141	StartPractice	41324	n/a	n/a	22
447.4233333333333	0	n/a	268455	KeyDown	41324	4	Index	22
447.6166666666667	0	n/a	268571	KeyDown	41324	1	Little	22
447.9716666666667	0	n/a	268784	KeyDown	41324	3	Middle	22
448.1533333333334	0	n/a	268893	KeyDown	41324	2	Ring	22
448.3916666666667	0	n/a	269036	KeyDown	41324	4	Index	22
448.6333333333334	0	n/a	269181	KeyDown	41324	4	Index	22
448.7833333333334	0	n/a	269271	KeyDown	41324	1	Little	22
449.1816666666667	0	n/a	269510	KeyDown	41324	3	Middle	22
449.4016666666667	0	n/a	269642	KeyDown	41324	2	Ring	22
449.6333333333334	0	n/a	269781	KeyDown	41324	4	Index	22
449.9116666666667	0	n/a	269948	KeyDown	41324	4	Index	22
450.0566666666667	0	n/a	270035	KeyDown	41324	1	Little	22
450.3933333333334	0	n/a	270237	KeyDown	41324	3	Middle	22
450.5650000000001	0	n/a	270340	KeyDown	41324	2	Ring	22
450.7883333333334	0	n/a	270474	KeyDown	41324	4	Index	22
451.0283333333334	0	n/a	270618	KeyDown	41324	4	Index	22
451.2016666666667	0	n/a	270722	KeyDown	41324	3	Middle	22
453.4016666666667	0	n/a	272042	KeyDown	41324	2	Ring	22
453.6133333333333	0	n/a	272169	KeyDown	41324	3	Middle	22
453.8433333333334	0	n/a	272307	KeyDown	41324	4	Index	22
454.6066666666667	0	n/a	272765	KeyDown	41324	4	Index	22
454.7516666666667	0	n/a	272852	KeyDown	41324	1	Little	22
455.0133333333334	0	n/a	273009	KeyDown	41324	3	Middle	22
455.1666666666667	0	n/a	273101	KeyDown	41324	2	Ring	22
455.3766666666667	0	n/a	273227	KeyDown	41324	4	Index	22
455.8833333333334	0	n/a	273531	KeyDown	41324	4	Index	22
456.0333333333334	0	n/a	273621	KeyDown	41324	1	Little	22
456.3016666666667	0	n/a	273782	KeyDown	41324	3	Middle	22
456.4400000000001	0	n/a	273865	KeyDown	41324	2	Ring	22
456.6366666666667	0	n/a	273983	KeyDown	41324	4	Index	22
456.9383333333334	0	n/a	274164	StopPractice	41324	n/a	n/a	22
456.9400000000001	0	n/a	274165	StartRest	XXXXX	n/a	n/a	22
466.9716666666667	0	n/a	280184	StopRest	XXXXX	n/a	n/a	22
466.9733333333334	0	UPPT001	280185	StartPractice	41324	n/a	n/a	23
467.4550000000000	0	n/a	280474	KeyDown	41324	4	Index	23
467.7116666666667	0	n/a	280628	KeyDown	41324	1	Little	23
467.9783333333334	0	n/a	280788	KeyDown	41324	3	Middle	23
468.1850000000000	0	n/a	280912	KeyDown	41324	2	Ring	23
468.4833333333333	0	n/a	281091	KeyDown	41324	4	Index	23
468.7583333333334	0	n/a	281256	KeyDown	41324	4	Index	23
468.9716666666667	0	n/a	281384	KeyDown	41324	1	Little	23
469.2916666666667	0	n/a	281576	KeyDown	41324	3	Middle	23
469.4800000000000	0	n/a	281689	KeyDown	41324	2	Ring	23
469.7550000000001	0	n/a	281854	KeyDown	41324	4	Index	23
470.0416666666667	0	n/a	282026	KeyDown	41324	4	Index	23
470.2816666666667	0	n/a	282170	KeyDown	41324	1	Little	23
470.9050000000000	0	n/a	282544	KeyDown	41324	3	Middle	23
471.1350000000000	0	n/a	282682	KeyDown	41324	2	Ring	23
471.4183333333334	0	n/a	282852	KeyDown	41324	4	Index	23
471.8416666666667	0	n/a	283106	KeyDown	41324	4	Index	23
472.0516666666667	0	n/a	283232	KeyDown	41324	1	Little	23
472.6250000000001	0	n/a	283576	KeyDown	41324	2	Ring	23
472.9166666666667	0	n/a	283751	KeyDown	41324	4	Index	23
473.2800000000000	0	n/a	283969	KeyDown	41324	4	Index	23
473.4650000000000	0	n/a	284080	KeyDown	41324	1	Little	23
473.7783333333334	0	n/a	284268	KeyDown	41324	3	Middle	23
473.9983333333334	0	n/a	284400	KeyDown	41324	2	Ring	23
474.2616666666667	0	n/a	284558	KeyDown	41324	4	Index	23
474.6666666666667	0	n/a	284801	KeyDown	41324	4	Index	23
474.8850000000000	0	n/a	284932	KeyDown	41324	1	Little	23
475.2116666666667	0	n/a	285128	KeyDown	41324	3	Middle	23
475.4350000000000	0	n/a	285262	KeyDown	41324	2	Ring	23
475.6666666666667	0	n/a	285401	KeyDown	41324	4	Index	23
476.0183333333334	0	n/a	285612	KeyDown	41324	4	Index	23
476.2133333333334	0	n/a	285729	KeyDown	41324	1	Little	23
476.5850000000000	0	n/a	285952	KeyDown	41324	3	Middle	23
476.7816666666667	0	n/a	286070	KeyDown	41324	2	Ring	23
477.0116666666667	0	n/a	286208	StopPractice	41324	n/a	n/a	23
477.0133333333334	0	n/a	286209	StartRest	XXXXX	n/a	n/a	23
487.0466666666667	0	n/a	292229	StopRest	XXXXX	n/a	n/a	23
487.0483333333333	0	UPPT001	292230	StartPractice	41324	n/a	n/a	24
487.5050000000001	0	n/a	292504	KeyDown	41324	4	Index	24
487.6800000000000	0	n/a	292609	KeyDown	41324	1	Little	24
487.8966666666667	0	n/a	292739	KeyDown	41324	3	Middle	24
488.0550000000000	0	n/a	292834	KeyDown	41324	2	Ring	24
488.2566666666667	0	n/a	292955	KeyDown	41324	4	Index	24
488.4583333333334	0	n/a	293076	KeyDown	41324	4	Index	24
488.8200000000001	0	n/a	293293	KeyDown	41324	1	Little	24
489.3050000000000	0	n/a	293584	KeyDown	41324	3	Middle	24
489.4566666666667	0	n/a	293675	KeyDown	41324	2	Ring	24
489.6766666666667	0	n/a	293807	KeyDown	41324	4	Index	24
489.8983333333334	0	n/a	293940	KeyDown	41324	4	Index	24
490.0666666666667	0	n/a	294041	KeyDown	41324	1	Little	24
490.3966666666667	0	n/a	294239	KeyDown	41324	3	Middle	24
490.6033333333334	0	n/a	294363	KeyDown	41324	2	Ring	24
490.8150000000001	0	n/a	294490	KeyDown	41324	4	Index	24
491.0133333333334	0	n/a	294609	KeyDown	41324	4	Index	24
491.1800000000000	0	n/a	294709	KeyDown	41324	1	Little	24
491.6383333333334	0	n/a	294984	KeyDown	41324	3	Middle	24
491.8066666666667	0	n/a	295085	KeyDown	41324	2	Ring	24
492.0200000000000	0	n/a	295213	KeyDown	41324	4	Index	24
492.2150000000000	0	n/a	295330	KeyDown	41324	4	Index	24
492.3700000000000	0	n/a	295423	KeyDown	41324	1	Little	24
492.7050000000000	0	n/a	295624	KeyDown	41324	3	Middle	24
492.8750000000001	0	n/a	295726	KeyDown	41324	2	Ring	24
493.1116666666667	0	n/a	295868	KeyDown	41324	4	Index	24
493.3150000000001	0	n/a	295990	KeyDown	41324	4	Index	24
493.5283333333334	0	n/a	296118	KeyDown	41324	1	Little	24
493.9650000000000	0	n/a	296380	KeyDown	41324	3	Middle	24
494.1366666666667	0	n/a	296483	KeyDown	41324	2	Ring	24
494.3683333333333	0	n/a	296622	KeyDown	41324	4	Index	24
494.5800000000000	0	n/a	296749	KeyDown	41324	4	Index	24
494.9566666666667	0	n/a	296975	KeyDown	41324	3	Middle	24
495.5216666666667	0	n/a	297314	KeyDown	41324	2	Ring	24
495.7450000000000	0	n/a	297448	KeyDown	41324	4	Index	24
496.5166666666667	0	n/a	297911	KeyDown	41324	4	Index	24
496.6866666666667	0	n/a	298013	KeyDown	41324	1	Little	24
497.0600000000001	0	n/a	298237	KeyDown	41324	3	Middle	24
497.0866666666667	0	n/a	298253	StopPractice	41324	n/a	n/a	24
497.0883333333334	0	n/a	298254	StartRest	XXXXX	n/a	n/a	24
507.1216666666667	0	n/a	304274	StopRest	XXXXX	n/a	n/a	24
507.1233333333334	0	UPPT001	304275	StartPractice	41324	n/a	n/a	25
507.5633333333334	0	n/a	304539	KeyDown	41324	4	Index	25
507.7433333333333	0	n/a	304647	KeyDown	41324	1	Little	25
507.9983333333334	0	n/a	304800	KeyDown	41324	3	Middle	25
508.1816666666667	0	n/a	304910	KeyDown	41324	2	Ring	25
508.4350000000001	0	n/a	305062	KeyDown	41324	4	Index	25
508.6300000000001	0	n/a	305179	KeyDown	41324	4	Index	25
508.8216666666667	0	n/a	305294	KeyDown	41324	1	Little	25
509.0800000000000	0	n/a	305449	KeyDown	41324	3	Middle	25
509.2700000000000	0	n/a	305563	KeyDown	41324	2	Ring	25
509.4916666666667	0	n/a	305696	KeyDown	41324	4	Index	25
509.6933333333334	0	n/a	305817	KeyDown	41324	4	Index	25
509.8633333333333	0	n/a	305919	KeyDown	41324	1	Little	25
510.1900000000001	0	n/a	306115	KeyDown	41324	3	Middle	25
510.3950000000000	0	n/a	306238	KeyDown	41324	2	Ring	25
510.6300000000001	0	n/a	306379	KeyDown	41324	4	Index	25
510.8133333333334	0	n/a	306489	KeyDown	41324	4	Index	25
511.1750000000000	0	n/a	306706	KeyDown	41324	1	Little	25
511.6633333333334	0	n/a	306999	KeyDown	41324	3	Middle	25
511.8500000000000	0	n/a	307111	KeyDown	41324	2	Ring	25
512.0716666666667	0	n/a	307244	KeyDown	41324	4	Index	25
512.3083333333334	0	n/a	307386	KeyDown	41324	4	Index	25
512.4866666666667	0	n/a	307493	KeyDown	41324	1	Little	25
512.8700000000000	0	n/a	307723	KeyDown	41324	3	Middle	25
513.0716666666667	0	n/a	307844	KeyDown	41324	2	Ring	25
513.3266666666667	0	n/a	307997	KeyDown	41324	4	Index	25
513.4750000000000	0	n/a	308086	KeyDown	41324	4	Index	25
513.7183333333334	0	n/a	308232	KeyDown	41324	1	Little	25
514.1950000000001	0	n/a	308518	KeyDown	41324	3	Middle	25
514.3916666666667	0	n/a	308636	KeyDown	41324	2	Ring	25
514.6483333333333	0	n/a	308790	KeyDown	41324	4	Index	25
514.8266666666667	0	n/a	308897	KeyDown	41324	4	Index	25
515.0950000000000	0	n/a	309058	KeyDown	41324	1	Little	25
515.5016666666667	0	n/a	309302	KeyDown	41324	3	Middle	25
515.6866666666667	0	n/a	309413	KeyDown	41324	2	Ring	25
515.9350000000001	0	n/a	309562	KeyDown	41324	4	Index	25
516.0933333333334	0	n/a	309657	KeyDown	41324	4	Index	25
516.3216666666667	0	n/a	309794	KeyDown	41324	1	Little	25
516.7316666666667	0	n/a	310040	KeyDown	41324	3	Middle	25
516.9083333333334	0	n/a	310146	KeyDown	41324	2	Ring	25
517.1616666666667	0	n/a	310298	StopPractice	41324	n/a	n/a	25
517.1633333333334	0	n/a	310299	StartRest	XXXXX	n/a	n/a	25
527.1966666666667	0	n/a	316319	StopRest	XXXXX	n/a	n/a	25
527.1983333333334	0	UPPT001	316320	StartPractice	41324	n/a	n/a	26
528.6066666666667	0	n/a	317165	KeyDown	41324	3	Middle	26
528.9983333333333	0	n/a	317400	KeyDown	41324	2	Ring	26
529.3216666666667	0	n/a	317594	KeyDown	41324	4	Index	26
529.4833333333333	0	n/a	317691	KeyDown	41324	4	Index	26
529.6900000000001	0	n/a	317815	KeyDown	41324	1	Little	26
530.5300000000001	0	n/a	318319	KeyDown	41324	3	Middle	26
530.7200000000000	0	n/a	318433	KeyDown	41324	2	Ring	26
530.9816666666667	0	n/a	318590	KeyDown	41324	4	Index	26
531.1316666666667	0	n/a	318680	KeyDown	41324	4	Index	26
531.3300000000000	0	n/a	318799	KeyDown	41324	1	Little	26
531.7233333333334	0	n/a	319035	KeyDown	41324	3	Middle	26
531.8983333333333	0	n/a	319140	KeyDown	41324	2	Ring	26
532.1450000000000	0	n/a	319288	KeyDown	41324	4	Index	26
532.2916666666667	0	n/a	319376	KeyDown	41324	4	Index	26
532.4700000000000	0	n/a	319483	KeyDown	41324	1	Little	26
532.8416666666667	0	n/a	319706	KeyDown	41324	3	Middle	26
533.0450000000001	0	n/a	319828	KeyDown	41324	2	Ring	26
533.2966666666667	0	n/a	319979	KeyDown	41324	4	Index	26
533.4466666666667	0	n/a	320069	KeyDown	41324	4	Index	26
533.6400000000000	0	n/a	320185	KeyDown	41324	1	Little	26
534.2150000000000	0	n/a	320530	KeyDown	41324	3	Middle	26
534.3833333333333	0	n/a	320631	KeyDown	41324	2	Ring	26
534.6333333333333	0	n/a	320781	KeyDown	41324	4	Index	26
534.7766666666668	0	n/a	320867	KeyDown	41324	4	Index	26
534.9650000000000	0	n/a	320980	KeyDown	41324	1	Little	26
535.3250000000000	0	n/a	321196	KeyDown	41324	3	Middle	26
535.5133333333333	0	n/a	321309	KeyDown	41324	2	Ring	26
535.7533333333333	0	n/a	321453	KeyDown	41324	4	Index	26
535.8933333333333	0	n/a	321537	KeyDown	41324	4	Index	26
536.0866666666667	0	n/a	321653	KeyDown	41324	1	Little	26
536.4550000000000	0	n/a	321874	KeyDown	41324	3	Middle	26
536.6250000000000	0	n/a	321976	KeyDown	41324	2	Ring	26
536.8733333333333	0	n/a	322125	KeyDown	41324	4	Index	26
537.0166666666667	0	n/a	322211	KeyDown	41324	4	Index	26
537.2150000000000	0	n/a	322330	KeyDown	41324	1	Little	26
537.2366666666667	0	n/a	322343	StopPractice	41324	n/a	n/a	26
537.2383333333333	0	n/a	322344	StartRest	XXXXX	n/a	n/a	26
547.2716666666666	0	n/a	328364	StopRest	XXXXX	n/a	n/a	26
547.2733333333333	0	UPPT001	328365	StartPractice	41324	n/a	n/a	27
547.7833333333334	0	n/a	328671	KeyDown	41324	3	Middle	27
547.9400000000001	0	n/a	328765	KeyDown	41324	2	Ring	27
548.1633333333334	0	n/a	328899	KeyDown	41324	4	Index	27
548.3100000000001	0	n/a	328987	KeyDown	41324	4	Index	27
548.4466666666667	0	n/a	329069	KeyDown	41324	1	Little	27
548.7500000000000	0	n/a	329251	KeyDown	41324	3	Middle	27
548.9116666666667	0	n/a	329348	KeyDown	41324	2	Ring	27
549.1100000000000	0	n/a	329467	KeyDown	41324	4	Index	27
549.2550000000000	0	n/a	329554	KeyDown	41324	4	Index	27
549.4266666666667	0	n/a	329657	KeyDown	41324	1	Little	27
549.7583333333333	0	n/a	329856	KeyDown	41324	3	Middle	27
549.9466666666667	0	n/a	329969	KeyDown	41324	2	Ring	27
550.1466666666666	0	n/a	330089	KeyDown	41324	4	Index	27
550.2950000000001	0	n/a	330178	KeyDown	41324	4	Index	27
550.4566666666667	0	n/a	330275	KeyDown	41324	1	Little	27
550.8616666666667	0	n/a	330518	KeyDown	41324	3	Middle	27
551.0433333333334	0	n/a	330627	KeyDown	41324	2	Ring	27
551.2616666666667	0	n/a	330758	KeyDown	41324	4	Index	27
551.4016666666668	0	n/a	330842	KeyDown	41324	4	Index	27
551.5766666666667	0	n/a	330947	KeyDown	41324	1	Little	27
551.9300000000001	0	n/a	331159	KeyDown	41324	3	Middle	27
552.1083333333333	0	n/a	331266	KeyDown	41324	2	Ring	27
552.3083333333334	0	n/a	331386	KeyDown	41324	4	Index	27
552.4550000000000	0	n/a	331474	KeyDown	41324	4	Index	27
552.6266666666667	0	n/a	331577	KeyDown	41324	1	Little	27
552.9883333333333	0	n/a	331794	KeyDown	41324	3	Middle	27
553.1466666666666	0	n/a	331889	KeyDown	41324	2	Ring	27
553.3583333333333	0	n/a	332016	KeyDown	41324	4	Index	27
553.5066666666667	0	n/a	332105	KeyDown	41324	4	Index	27
553.6716666666667	0	n/a	332204	KeyDown	41324	1	Little	27
554.0466666666667	0	n/a	332429	KeyDown	41324	3	Middle	27
554.2450000000000	0	n/a	332548	KeyDown	41324	2	Ring	27
554.4550000000000	0	n/a	332674	KeyDown	41324	4	Index	27
554.6250000000000	0	n/a	332776	KeyDown	41324	4	Index	27
554.7850000000001	0	n/a	332872	KeyDown	41324	1	Little	27
555.2116666666667	0	n/a	333128	KeyDown	41324	3	Middle	27
555.3850000000000	0	n/a	333232	KeyDown	41324	2	Ring	27
555.6116666666667	0	n/a	333368	KeyDown	41324	4	Index	27
555.7650000000000	0	n/a	333460	KeyDown	41324	4	Index	27
555.9433333333334	0	n/a	333567	KeyDown	41324	1	Little	27
556.2750000000001	0	n/a	333766	KeyDown	41324	3	Middle	27
556.4433333333334	0	n/a	333867	KeyDown	41324	2	Ring	27
556.6550000000001	0	n/a	333994	KeyDown	41324	4	Index	27
556.8133333333334	0	n/a	334089	KeyDown	41324	4	Index	27
556.9866666666667	0	n/a	334193	KeyDown	41324	1	Little	27
557.3116666666667	0	n/a	334388	StopPractice	41324	n/a	n/a	27
557.3133333333334	0	n/a	334389	StartRest	XXXXX	n/a	n/a	27
567.3466666666667	0	n/a	340409	StopRest	XXXXX	n/a	n/a	27
567.3483333333334	0	UPPT001	340410	StartPractice	41324	n/a	n/a	28
567.9916666666667	0	n/a	340796	KeyDown	41324	4	Index	28
568.3450000000000	0	n/a	341008	KeyDown	41324	1	Little	28
568.7116666666667	0	n/a	341228	KeyDown	41324	3	Middle	28
568.9150000000001	0	n/a	341350	KeyDown	41324	2	Ring	28
569.1450000000000	0	n/a	341488	KeyDown	41324	4	Index	28
569.2900000000001	0	n/a	341575	KeyDown	41324	4	Index	28
569.4550000000000	0	n/a	341674	KeyDown	41324	1	Little	28
569.7950000000001	0	n/a	341878	KeyDown	41324	3	Middle	28
569.9650000000000	0	n/a	341980	KeyDown	41324	2	Ring	28
570.1733333333334	0	n/a	342105	KeyDown	41324	4	Index	28
570.3200000000001	0	n/a	342193	KeyDown	41324	4	Index	28
570.4800000000000	0	n/a	342289	KeyDown	41324	1	Little	28
570.7850000000001	0	n/a	342472	KeyDown	41324	3	Middle	28
570.9566666666667	0	n/a	342575	KeyDown	41324	2	Ring	28
571.1616666666667	0	n/a	342698	KeyDown	41324	4	Index	28
571.3216666666667	0	n/a	342794	KeyDown	41324	4	Index	28
571.5133333333333	0	n/a	342909	KeyDown	41324	1	Little	28
571.8833333333333	0	n/a	343131	KeyDown	41324	3	Middle	28
572.0550000000001	0	n/a	343234	KeyDown	41324	2	Ring	28
572.2416666666667	0	n/a	343346	KeyDown	41324	4	Index	28
572.4000000000001	0	n/a	343441	KeyDown	41324	4	Index	28
572.5516666666667	0	n/a	343532	KeyDown	41324	1	Little	28
572.8716666666667	0	n/a	343724	KeyDown	41324	3	Middle	28
573.0200000000000	0	n/a	343813	KeyDown	41324	2	Ring	28
573.2233333333334	0	n/a	343935	KeyDown	41324	4	Index	28
573.3650000000000	0	n/a	344020	KeyDown	41324	4	Index	28
573.5233333333334	0	n/a	344115	KeyDown	41324	1	Little	28
573.8366666666667	0	n/a	344303	KeyDown	41324	3	Middle	28
574.0766666666667	0	n/a	344447	KeyDown	41324	2	Ring	28
574.2983333333334	0	n/a	344580	KeyDown	41324	4	Index	28
574.4400000000001	0	n/a	344665	KeyDown	41324	4	Index	28
574.5916666666667	0	n/a	344756	KeyDown	41324	1	Little	28
574.8750000000000	0	n/a	344926	KeyDown	41324	3	Middle	28
575.0333333333334	0	n/a	345021	KeyDown	41324	2	Ring	28
575.2183333333334	0	n/a	345132	KeyDown	41324	4	Index	28
575.3466666666667	0	n/a	345209	KeyDown	41324	4	Index	28
575.5000000000000	0	n/a	345301	KeyDown	41324	1	Little	28
575.7666666666667	0	n/a	345461	KeyDown	41324	3	Middle	28
575.9216666666667	0	n/a	345554	KeyDown	41324	2	Ring	28
576.1066666666667	0	n/a	345665	KeyDown	41324	4	Index	28
576.2450000000000	0	n/a	345748	KeyDown	41324	4	Index	28
576.4000000000001	0	n/a	345841	KeyDown	41324	1	Little	28
576.7750000000001	0	n/a	346066	KeyDown	41324	3	Middle	28
576.9450000000001	0	n/a	346168	KeyDown	41324	2	Ring	28
577.1250000000000	0	n/a	346276	KeyDown	41324	4	Index	28
577.2633333333333	0	n/a	346359	KeyDown	41324	4	Index	28
577.3866666666667	0	n/a	346433	StopPractice	41324	n/a	n/a	28
577.3883333333333	0	n/a	346434	StartRest	XXXXX	n/a	n/a	28
587.4216666666667	0	n/a	352454	StopRest	XXXXX	n/a	n/a	28
587.4233333333334	0	UPPT001	352455	StartPractice	41324	n/a	n/a	29
587.9966666666667	0	n/a	352799	KeyDown	41324	4	Index	29
588.1083333333333	0	n/a	352866	KeyDown	41324	1	Little	29
588.6216666666667	0	n/a	353174	KeyDown	41324	3	Middle	29
588.8050000000001	0	n/a	353284	KeyDown	41324	2	Ring	29
589.0283333333334	0	n/a	353418	KeyDown	41324	4	Index	29
589.1550000000001	0	n/a	353494	KeyDown	41324	4	Index	29
589.3016666666667	0	n/a	353582	KeyDown	41324	1	Little	29
589.5766666666667	0	n/a	353747	KeyDown	41324	3	Middle	29
589.7350000000000	0	n/a	353842	KeyDown	41324	2	Ring	29
589.9066666666668	0	n/a	353945	KeyDown	41324	4	Index	29
590.0316666666668	0	n/a	354020	KeyDown	41324	4	Index	29
590.1766666666667	0	n/a	354107	KeyDown	41324	1	Little	29
590.4866666666667	0	n/a	354293	KeyDown	41324	3	Middle	29
590.6433333333333	0	n/a	354387	KeyDown	41324	2	Ring	29
590.8150000000001	0	n/a	354490	KeyDown	41324	4	Index	29
590.9516666666667	0	n/a	354572	KeyDown	41324	4	Index	29
591.0950000000000	0	n/a	354658	KeyDown	41324	1	Little	29
591.4016666666668	0	n/a	354842	KeyDown	41324	3	Middle	29
591.5600000000001	0	n/a	354937	KeyDown	41324	2	Ring	29
591.7116666666667	0	n/a	355028	KeyDown	41324	4	Index	29
591.8550000000000	0	n/a	355114	KeyDown	41324	4	Index	29
592.0150000000000	0	n/a	355210	KeyDown	41324	1	Little	29
592.3250000000000	0	n/a	355396	KeyDown	41324	3	Middle	29
592.4766666666667	0	n/a	355487	KeyDown	41324	2	Ring	29
592.6533333333334	0	n/a	355593	KeyDown	41324	4	Index	29
592.7966666666667	0	n/a	355679	KeyDown	41324	4	Index	29
592.9533333333334	0	n/a	355773	KeyDown	41324	1	Little	29
593.2666666666667	0	n/a	355961	KeyDown	41324	3	Middle	29
593.4100000000001	0	n/a	356047	KeyDown	41324	2	Ring	29
593.5966666666667	0	n/a	356159	KeyDown	41324	4	Index	29
593.7283333333334	0	n/a	356238	KeyDown	41324	4	Index	29
593.8800000000000	0	n/a	356329	KeyDown	41324	1	Little	29
594.1750000000001	0	n/a	356506	KeyDown	41324	3	Middle	29
594.3400000000000	0	n/a	356605	KeyDown	41324	2	Ring	29
594.5000000000000	0	n/a	356701	KeyDown	41324	4	Index	29
594.6416666666667	0	n/a	356786	KeyDown	41324	4	Index	29
594.7983333333334	0	n/a	356880	KeyDown	41324	1	Little	29
595.1283333333333	0	n/a	357078	KeyDown	41324	3	Middle	29
595.2666666666667	0	n/a	357161	KeyDown	41324	2	Ring	29
595.5050000000000	0	n/a	357304	KeyDown	41324	4	Index	29
595.6700000000001	0	n/a	357403	KeyDown	41324	4	Index	29
595.8200000000001	0	n/a	357493	KeyDown	41324	1	Little	29
596.1550000000001	0	n/a	357694	KeyDown	41324	3	Middle	29
596.3300000000000	0	n/a	357799	KeyDown	41324	2	Ring	29
596.5166666666667	0	n/a	357911	KeyDown	41324	4	Index	29
596.6616666666667	0	n/a	357998	KeyDown	41324	4	Index	29
596.8250000000000	0	n/a	358096	KeyDown	41324	1	Little	29
597.1916666666667	0	n/a	358316	KeyDown	41324	3	Middle	29
597.3400000000000	0	n/a	358405	KeyDown	41324	2	Ring	29
597.4616666666667	0	n/a	358478	StopPractice	41324	n/a	n/a	29
597.4633333333334	0	n/a	358479	StartRest	XXXXX	n/a	n/a	29
607.4966666666667	0	n/a	364499	StopRest	XXXXX	n/a	n/a	29
607.4983333333333	0	UPPT001	364500	StartPractice	41324	n/a	n/a	30
608.0433333333334	0	n/a	364827	KeyDown	41324	4	Index	30
608.3283333333334	0	n/a	364998	KeyDown	41324	1	Little	30
608.6550000000001	0	n/a	365194	KeyDown	41324	3	Middle	30
608.8283333333334	0	n/a	365298	KeyDown	41324	2	Ring	30
609.0316666666668	0	n/a	365420	KeyDown	41324	4	Index	30
609.1650000000001	0	n/a	365500	KeyDown	41324	4	Index	30
609.3250000000000	0	n/a	365596	KeyDown	41324	1	Little	30
609.6166666666667	0	n/a	365771	KeyDown	41324	3	Middle	30
609.7716666666668	0	n/a	365864	KeyDown	41324	2	Ring	30
609.9383333333334	0	n/a	365964	KeyDown	41324	4	Index	30
610.0650000000001	0	n/a	366040	KeyDown	41324	4	Index	30
610.2250000000000	0	n/a	366136	KeyDown	41324	1	Little	30
610.5066666666667	0	n/a	366305	KeyDown	41324	3	Middle	30
610.6766666666667	0	n/a	366407	KeyDown	41324	2	Ring	30
610.8250000000000	0	n/a	366496	KeyDown	41324	4	Index	30
610.9700000000000	0	n/a	366583	KeyDown	41324	4	Index	30
611.1383333333333	0	n/a	366684	KeyDown	41324	1	Little	30
611.5150000000000	0	n/a	366910	KeyDown	41324	3	Middle	30
611.6866666666667	0	n/a	367013	KeyDown	41324	2	Ring	30
611.8500000000000	0	n/a	367111	KeyDown	41324	4	Index	30
612.0083333333333	0	n/a	367206	KeyDown	41324	4	Index	30
612.1816666666667	0	n/a	367310	KeyDown	41324	1	Little	30
612.5800000000000	0	n/a	367549	KeyDown	41324	3	Middle	30
612.7416666666667	0	n/a	367646	KeyDown	41324	2	Ring	30
612.9250000000001	0	n/a	367756	KeyDown	41324	4	Index	30
613.0633333333334	0	n/a	367839	KeyDown	41324	4	Index	30
613.2100000000000	0	n/a	367927	KeyDown	41324	1	Little	30
613.5116666666667	0	n/a	368108	KeyDown	41324	3	Middle	30
613.6683333333334	0	n/a	368202	KeyDown	41324	2	Ring	30
613.8416666666667	0	n/a	368306	KeyDown	41324	4	Index	30
613.9766666666667	0	n/a	368387	KeyDown	41324	4	Index	30
614.1250000000000	0	n/a	368476	KeyDown	41324	1	Little	30
614.4383333333334	0	n/a	368664	KeyDown	41324	3	Middle	30
614.6066666666667	0	n/a	368765	KeyDown	41324	2	Ring	30
614.7616666666667	0	n/a	368858	KeyDown	41324	4	Index	30
614.9016666666668	0	n/a	368942	KeyDown	41324	4	Index	30
615.0616666666667	0	n/a	369038	KeyDown	41324	1	Little	30
615.3700000000000	0	n/a	369223	KeyDown	41324	3	Middle	30
615.5350000000001	0	n/a	369322	KeyDown	41324	2	Ring	30
615.6883333333334	0	n/a	369414	KeyDown	41324	4	Index	30
615.8316666666667	0	n/a	369500	KeyDown	41324	4	Index	30
616.0000000000000	0	n/a	369601	KeyDown	41324	1	Little	30
616.4550000000000	0	n/a	369874	KeyDown	41324	3	Middle	30
616.6283333333333	0	n/a	369978	KeyDown	41324	2	Ring	30
616.8100000000001	0	n/a	370087	KeyDown	41324	4	Index	30
616.9516666666667	0	n/a	370172	KeyDown	41324	4	Index	30
617.1016666666667	0	n/a	370262	KeyDown	41324	1	Little	30
617.4500000000000	0	n/a	370471	KeyDown	41324	3	Middle	30
617.5366666666667	0	n/a	370523	StopPractice	41324	n/a	n/a	30
617.5383333333334	0	n/a	370524	StartRest	XXXXX	n/a	n/a	30
627.5700000000001	0	n/a	376543	StopRest	XXXXX	n/a	n/a	30
627.5716666666667	0	UPPT001	376544	StartPractice	41324	n/a	n/a	31
628.0833333333334	0	n/a	376851	KeyDown	41324	4	Index	31
628.2200000000000	0	n/a	376933	KeyDown	41324	1	Little	31
628.4283333333334	0	n/a	377058	KeyDown	41324	3	Middle	31
628.6283333333333	0	n/a	377178	KeyDown	41324	2	Ring	31
628.8450000000000	0	n/a	377308	KeyDown	41324	4	Index	31
628.9666666666667	0	n/a	377381	KeyDown	41324	4	Index	31
629.1033333333334	0	n/a	377463	KeyDown	41324	1	Little	31
629.3716666666667	0	n/a	377624	KeyDown	41324	3	Middle	31
629.5516666666667	0	n/a	377732	KeyDown	41324	2	Ring	31
629.7100000000000	0	n/a	377827	KeyDown	41324	4	Index	31
629.8600000000000	0	n/a	377917	KeyDown	41324	4	Index	31
629.9900000000000	0	n/a	377995	KeyDown	41324	1	Little	31
630.2783333333334	0	n/a	378168	KeyDown	41324	3	Middle	31
630.4350000000001	0	n/a	378262	KeyDown	41324	2	Ring	31
630.6000000000000	0	n/a	378361	KeyDown	41324	4	Index	31
630.7350000000000	0	n/a	378442	KeyDown	41324	4	Index	31
630.8633333333333	0	n/a	378519	KeyDown	41324	1	Little	31
631.1566666666668	0	n/a	378695	KeyDown	41324	3	Middle	31
631.3233333333334	0	n/a	378795	KeyDown	41324	2	Ring	31
631.4883333333333	0	n/a	378894	KeyDown	41324	4	Index	31
631.6250000000000	0	n/a	378976	KeyDown	41324	4	Index	31
631.7733333333334	0	n/a	379065	KeyDown	41324	1	Little	31
632.0833333333334	0	n/a	379251	KeyDown	41324	3	Middle	31
632.2700000000001	0	n/a	379363	KeyDown	41324	2	Ring	31
632.4400000000001	0	n/a	379465	KeyDown	41324	4	Index	31
632.5733333333334	0	n/a	379545	KeyDown	41324	4	Index	31
632.7200000000000	0	n/a	379633	KeyDown	41324	1	Little	31
633.0633333333334	0	n/a	379839	KeyDown	41324	3	Middle	31
633.2350000000000	0	n/a	379942	KeyDown	41324	2	Ring	31
633.3600000000000	0	n/a	380017	KeyDown	41324	4	Index	31
633.5066666666667	0	n/a	380105	KeyDown	41324	4	Index	31
633.6366666666667	0	n/a	380183	KeyDown	41324	1	Little	31
634.0383333333334	0	n/a	380424	KeyDown	41324	3	Middle	31
634.2066666666667	0	n/a	380525	KeyDown	41324	2	Ring	31
634.3950000000001	0	n/a	380638	KeyDown	41324	4	Index	31
634.5383333333334	0	n/a	380724	KeyDown	41324	4	Index	31
634.6766666666667	0	n/a	380807	KeyDown	41324	1	Little	31
635.0800000000000	0	n/a	381049	KeyDown	41324	3	Middle	31
635.2483333333333	0	n/a	381150	KeyDown	41324	2	Ring	31
635.4300000000001	0	n/a	381259	KeyDown	41324	4	Index	31
635.5666666666667	0	n/a	381341	KeyDown	41324	4	Index	31
635.7200000000000	0	n/a	381433	KeyDown	41324	1	Little	31
636.1316666666667	0	n/a	381680	KeyDown	41324	3	Middle	31
636.3933333333334	0	n/a	381837	KeyDown	41324	2	Ring	31
636.5783333333334	0	n/a	381948	KeyDown	41324	4	Index	31
636.7250000000000	0	n/a	382036	KeyDown	41324	4	Index	31
636.8683333333333	0	n/a	382122	KeyDown	41324	1	Little	31
637.1716666666667	0	n/a	382304	KeyDown	41324	3	Middle	31
637.3416666666667	0	n/a	382406	KeyDown	41324	2	Ring	31
637.4950000000000	0	n/a	382498	KeyDown	41324	4	Index	31
637.6100000000000	0	n/a	382567	StopPractice	41324	n/a	n/a	31
637.6116666666667	0	n/a	382568	StartRest	XXXXX	n/a	n/a	31
647.6616666666667	0	n/a	388598	StopRest	XXXXX	n/a	n/a	31
647.6633333333334	0	UPPT001	388599	StartPractice	41324	n/a	n/a	32
648.0800000000000	0	n/a	388849	KeyDown	41324	4	Index	32
648.2050000000000	0	n/a	388924	KeyDown	41324	1	Little	32
648.4150000000001	0	n/a	389050	KeyDown	41324	3	Middle	32
648.9200000000001	0	n/a	389353	KeyDown	41324	3	Middle	32
649.1916666666667	0	n/a	389516	KeyDown	41324	2	Ring	32
651.1800000000001	0	n/a	390709	KeyDown	41324	4	Index	32
651.3416666666667	0	n/a	390806	KeyDown	41324	1	Little	32
651.6100000000000	0	n/a	390967	KeyDown	41324	3	Middle	32
651.7900000000001	0	n/a	391075	KeyDown	41324	2	Ring	32
651.9866666666667	0	n/a	391193	KeyDown	41324	4	Index	32
652.1000000000000	0	n/a	391261	KeyDown	41324	4	Index	32
652.2300000000000	0	n/a	391339	KeyDown	41324	1	Little	32
652.4816666666667	0	n/a	391490	KeyDown	41324	3	Middle	32
652.6400000000000	0	n/a	391585	KeyDown	41324	2	Ring	32
652.8050000000001	0	n/a	391684	KeyDown	41324	4	Index	32
652.9350000000001	0	n/a	391762	KeyDown	41324	4	Index	32
653.1000000000000	0	n/a	391861	KeyDown	41324	1	Little	32
653.3950000000001	0	n/a	392038	KeyDown	41324	3	Middle	32
653.5666666666667	0	n/a	392141	KeyDown	41324	2	Ring	32
653.7450000000000	0	n/a	392248	KeyDown	41324	4	Index	32
653.8766666666667	0	n/a	392327	KeyDown	41324	4	Index	32
654.0216666666668	0	n/a	392414	KeyDown	41324	1	Little	32
654.3166666666667	0	n/a	392591	KeyDown	41324	3	Middle	32
654.4883333333333	0	n/a	392694	KeyDown	41324	2	Ring	32
654.6600000000001	0	n/a	392797	KeyDown	41324	4	Index	32
654.7900000000001	0	n/a	392875	KeyDown	41324	4	Index	32
654.9450000000001	0	n/a	392968	KeyDown	41324	1	Little	32
655.2500000000000	0	n/a	393151	KeyDown	41324	3	Middle	32
655.5200000000001	0	n/a	393313	KeyDown	41324	2	Ring	32
655.7316666666667	0	n/a	393440	KeyDown	41324	4	Index	32
655.8683333333333	0	n/a	393522	KeyDown	41324	4	Index	32
656.0250000000001	0	n/a	393616	KeyDown	41324	1	Little	32
656.3250000000000	0	n/a	393796	KeyDown	41324	3	Middle	32
656.4950000000000	0	n/a	393898	KeyDown	41324	2	Ring	32
656.6583333333334	0	n/a	393996	KeyDown	41324	4	Index	32
656.8100000000001	0	n/a	394087	KeyDown	41324	4	Index	32
656.9483333333334	0	n/a	394170	KeyDown	41324	1	Little	32
657.2816666666668	0	n/a	394370	KeyDown	41324	3	Middle	32
657.4466666666667	0	n/a	394469	KeyDown	41324	2	Ring	32
657.6150000000000	0	n/a	394570	KeyDown	41324	4	Index	32
657.7016666666667	0	n/a	394622	StopPractice	41324	n/a	n/a	32
657.7033333333334	0	n/a	394623	StartRest	XXXXX	n/a	n/a	32
667.7383333333333	0	n/a	400644	StopRest	XXXXX	n/a	n/a	32
667.7400000000000	0	UPPT001	400645	StartPractice	41324	n/a	n/a	33
668.1383333333333	0	n/a	400884	KeyDown	41324	4	Index	33
668.2800000000001	0	n/a	400969	KeyDown	41324	1	Little	33
668.5616666666667	0	n/a	401138	KeyDown	41324	3	Middle	33
668.7133333333334	0	n/a	401229	KeyDown	41324	2	Ring	33
668.8950000000001	0	n/a	401338	KeyDown	41324	4	Index	33
669.0016666666667	0	n/a	401402	KeyDown	41324	4	Index	33
669.1416666666668	0	n/a	401486	KeyDown	41324	1	Little	33
669.4016666666668	0	n/a	401642	KeyDown	41324	3	Middle	33
669.5583333333334	0	n/a	401736	KeyDown	41324	2	Ring	33
669.7233333333334	0	n/a	401835	KeyDown	41324	4	Index	33
669.8516666666667	0	n/a	401912	KeyDown	41324	4	Index	33
669.9883333333333	0	n/a	401994	KeyDown	41324	1	Little	33
670.3183333333334	0	n/a	402192	KeyDown	41324	3	Middle	33
670.4633333333334	0	n/a	402279	KeyDown	41324	2	Ring	33
670.6116666666667	0	n/a	402368	KeyDown	41324	4	Index	33
670.7416666666667	0	n/a	402446	KeyDown	41324	4	Index	33
670.8883333333333	0	n/a	402534	KeyDown	41324	1	Little	33
671.2016666666667	0	n/a	402722	KeyDown	41324	3	Middle	33
671.3716666666667	0	n/a	402824	KeyDown	41324	2	Ring	33
671.5400000000001	0	n/a	402925	KeyDown	41324	4	Index	33
671.6816666666667	0	n/a	403010	KeyDown	41324	4	Index	33
671.8233333333334	0	n/a	403095	KeyDown	41324	1	Little	33
672.1700000000001	0	n/a	403303	KeyDown	41324	3	Middle	33
672.3283333333334	0	n/a	403398	KeyDown	41324	2	Ring	33
672.4983333333333	0	n/a	403500	KeyDown	41324	4	Index	33
672.6283333333333	0	n/a	403578	KeyDown	41324	4	Index	33
672.7866666666667	0	n/a	403673	KeyDown	41324	1	Little	33
673.0716666666667	0	n/a	403844	KeyDown	41324	3	Middle	33
673.2266666666667	0	n/a	403937	KeyDown	41324	2	Ring	33
673.3783333333333	0	n/a	404028	KeyDown	41324	4	Index	33
673.5150000000001	0	n/a	404110	KeyDown	41324	4	Index	33
673.6683333333334	0	n/a	404202	KeyDown	41324	1	Little	33
674.0633333333334	0	n/a	404439	KeyDown	41324	3	Middle	33
674.2666666666668	0	n/a	404561	KeyDown	41324	2	Ring	33
674.4200000000001	0	n/a	404653	KeyDown	41324	4	Index	33
674.5566666666667	0	n/a	404735	KeyDown	41324	4	Index	33
674.6900000000001	0	n/a	404815	KeyDown	41324	1	Little	33
675.0083333333333	0	n/a	405006	KeyDown	41324	3	Middle	33
675.1516666666668	0	n/a	405092	KeyDown	41324	2	Ring	33
675.3166666666667	0	n/a	405191	KeyDown	41324	4	Index	33
675.4516666666667	0	n/a	405272	KeyDown	41324	4	Index	33
675.6116666666667	0	n/a	405368	KeyDown	41324	1	Little	33
676.0216666666668	0	n/a	405614	KeyDown	41324	4	Index	33
676.2283333333334	0	n/a	405738	KeyDown	41324	3	Middle	33
676.5950000000000	0	n/a	405958	KeyDown	41324	2	Ring	33
676.8683333333333	0	n/a	406122	KeyDown	41324	4	Index	33
677.3233333333334	0	n/a	406395	KeyDown	41324	4	Index	33
677.6416666666668	0	n/a	406586	KeyDown	41324	1	Little	33
677.7783333333334	0	n/a	406668	StopPractice	41324	n/a	n/a	33
677.7800000000001	0	n/a	406669	StartRest	XXXXX	n/a	n/a	33
687.8116666666667	0	n/a	412688	StopRest	XXXXX	n/a	n/a	33
687.8133333333334	0	UPPT001	412689	StartPractice	41324	n/a	n/a	34
688.2583333333333	0	n/a	412956	KeyDown	41324	4	Index	34
688.4216666666667	0	n/a	413054	KeyDown	41324	1	Little	34
688.7033333333334	0	n/a	413223	KeyDown	41324	3	Middle	34
688.8733333333333	0	n/a	413325	KeyDown	41324	2	Ring	34
689.0616666666667	0	n/a	413438	KeyDown	41324	4	Index	34
689.1766666666667	0	n/a	413507	KeyDown	41324	4	Index	34
689.3100000000001	0	n/a	413587	KeyDown	41324	1	Little	34
689.5900000000000	0	n/a	413755	KeyDown	41324	3	Middle	34
689.7550000000000	0	n/a	413854	KeyDown	41324	2	Ring	34
689.9050000000001	0	n/a	413944	KeyDown	41324	4	Index	34
690.0333333333334	0	n/a	414021	KeyDown	41324	4	Index	34
690.1650000000001	0	n/a	414100	KeyDown	41324	1	Little	34
690.4583333333334	0	n/a	414276	KeyDown	41324	3	Middle	34
690.6416666666668	0	n/a	414386	KeyDown	41324	2	Ring	34
690.9850000000000	0	n/a	414592	KeyDown	41324	2	Ring	34
691.2400000000000	0	n/a	414745	KeyDown	41324	4	Index	34
691.3766666666667	0	n/a	414827	KeyDown	41324	4	Index	34
691.5250000000001	0	n/a	414916	KeyDown	41324	1	Little	34
691.8850000000000	0	n/a	415132	KeyDown	41324	3	Middle	34
692.0400000000001	0	n/a	415225	KeyDown	41324	2	Ring	34
692.1966666666667	0	n/a	415319	KeyDown	41324	4	Index	34
692.3400000000000	0	n/a	415405	KeyDown	41324	4	Index	34
692.4750000000000	0	n/a	415486	KeyDown	41324	1	Little	34
692.7450000000000	0	n/a	415648	KeyDown	41324	3	Middle	34
692.9200000000001	0	n/a	415753	KeyDown	41324	2	Ring	34
693.0666666666667	0	n/a	415841	KeyDown	41324	4	Index	34
693.2100000000000	0	n/a	415927	KeyDown	41324	4	Index	34
693.3500000000000	0	n/a	416011	KeyDown	41324	1	Little	34
693.7400000000000	0	n/a	416245	KeyDown	41324	3	Middle	34
693.9000000000001	0	n/a	416341	KeyDown	41324	2	Ring	34
694.0466666666667	0	n/a	416429	KeyDown	41324	4	Index	34
694.1966666666667	0	n/a	416519	KeyDown	41324	4	Index	34
694.3366666666667	0	n/a	416603	KeyDown	41324	1	Little	34
694.6616666666667	0	n/a	416798	KeyDown	41324	3	Middle	34
694.8716666666667	0	n/a	416924	KeyDown	41324	2	Ring	34
695.0400000000001	0	n/a	417025	KeyDown	41324	4	Index	34
695.1800000000001	0	n/a	417109	KeyDown	41324	4	Index	34
695.3200000000001	0	n/a	417193	KeyDown	41324	1	Little	34
695.6483333333334	0	n/a	417390	KeyDown	41324	3	Middle	34
695.8100000000001	0	n/a	417487	KeyDown	41324	2	Ring	34
695.9950000000000	0	n/a	417598	KeyDown	41324	4	Index	34
696.1233333333333	0	n/a	417675	KeyDown	41324	4	Index	34
696.2733333333334	0	n/a	417765	KeyDown	41324	1	Little	34
696.6300000000000	0	n/a	417979	KeyDown	41324	3	Middle	34
696.8600000000000	0	n/a	418117	KeyDown	41324	2	Ring	34
697.0366666666667	0	n/a	418223	KeyDown	41324	4	Index	34
697.1916666666667	0	n/a	418316	KeyDown	41324	4	Index	34
697.3416666666667	0	n/a	418406	KeyDown	41324	1	Little	34
697.7666666666668	0	n/a	418661	KeyDown	41324	3	Middle	34
697.8516666666667	0	n/a	418712	StopPractice	41324	n/a	n/a	34
697.8533333333334	0	n/a	418713	StartRest	XXXXX	n/a	n/a	34
707.9033333333334	0	n/a	424743	StopRest	XXXXX	n/a	n/a	34
707.9050000000001	0	UPPT001	424744	StartPractice	41324	n/a	n/a	35
708.3933333333334	0	n/a	425037	KeyDown	41324	4	Index	35
708.5333333333334	0	n/a	425121	KeyDown	41324	1	Little	35
708.8883333333334	0	n/a	425334	KeyDown	41324	3	Middle	35
709.0916666666667	0	n/a	425456	KeyDown	41324	3	Middle	35
709.2883333333334	0	n/a	425574	KeyDown	41324	2	Ring	35
709.4866666666667	0	n/a	425693	KeyDown	41324	2	Ring	35
709.7216666666667	0	n/a	425834	KeyDown	41324	4	Index	35
710.1883333333334	0	n/a	426114	KeyDown	41324	1	Little	35
710.7383333333333	0	n/a	426444	KeyDown	41324	3	Middle	35
710.9066666666668	0	n/a	426545	KeyDown	41324	2	Ring	35
711.1033333333334	0	n/a	426663	KeyDown	41324	4	Index	35
711.2216666666667	0	n/a	426734	KeyDown	41324	4	Index	35
711.3416666666667	0	n/a	426806	KeyDown	41324	1	Little	35
711.6083333333333	0	n/a	426966	KeyDown	41324	3	Middle	35
711.7733333333334	0	n/a	427065	KeyDown	41324	2	Ring	35
711.9516666666667	0	n/a	427172	KeyDown	41324	4	Index	35
712.0733333333334	0	n/a	427245	KeyDown	41324	4	Index	35
712.2033333333334	0	n/a	427323	KeyDown	41324	1	Little	35
712.4583333333334	0	n/a	427476	KeyDown	41324	3	Middle	35
712.6183333333333	0	n/a	427572	KeyDown	41324	2	Ring	35
712.7916666666667	0	n/a	427676	KeyDown	41324	4	Index	35
712.9100000000001	0	n/a	427747	KeyDown	41324	4	Index	35
713.0583333333334	0	n/a	427836	KeyDown	41324	1	Little	35
713.3350000000000	0	n/a	428002	KeyDown	41324	3	Middle	35
713.5083333333333	0	n/a	428106	KeyDown	41324	2	Ring	35
713.6500000000001	0	n/a	428191	KeyDown	41324	4	Index	35
713.7733333333334	0	n/a	428265	KeyDown	41324	4	Index	35
713.9200000000001	0	n/a	428353	KeyDown	41324	1	Little	35
714.2800000000001	0	n/a	428569	KeyDown	41324	3	Middle	35
714.4216666666667	0	n/a	428654	KeyDown	41324	2	Ring	35
714.5750000000000	0	n/a	428746	KeyDown	41324	4	Index	35
714.7116666666667	0	n/a	428828	KeyDown	41324	4	Index	35
714.8433333333334	0	n/a	428907	KeyDown	41324	1	Little	35
715.1283333333333	0	n/a	429078	KeyDown	41324	3	Middle	35
715.2883333333334	0	n/a	429174	KeyDown	41324	2	Ring	35
715.4216666666667	0	n/a	429254	KeyDown	41324	4	Index	35
715.5766666666667	0	n/a	429347	KeyDown	41324	4	Index	35
715.7216666666667	0	n/a	429434	KeyDown	41324	1	Little	35
716.1333333333333	0	n/a	429681	KeyDown	41324	3	Middle	35
716.2950000000001	0	n/a	429778	KeyDown	41324	2	Ring	35
716.4766666666667	0	n/a	429887	KeyDown	41324	4	Index	35
716.6100000000000	0	n/a	429967	KeyDown	41324	4	Index	35
716.7600000000000	0	n/a	430057	KeyDown	41324	1	Little	35
717.1650000000001	0	n/a	430300	KeyDown	41324	3	Middle	35
717.3400000000000	0	n/a	430405	KeyDown	41324	2	Ring	35
717.4833333333333	0	n/a	430491	KeyDown	41324	4	Index	35
717.6483333333334	0	n/a	430590	KeyDown	41324	4	Index	35
717.8183333333334	0	n/a	430692	KeyDown	41324	1	Little	35
717.9433333333334	0	n/a	430767	StopPractice	41324	n/a	n/a	35
717.9450000000001	0	n/a	430768	StartRest	XXXXX	n/a	n/a	35
727.9966666666667	0	n/a	436799	StopRest	XXXXX	n/a	n/a	35
727.9983333333333	0	UPPT001	436800	StartPractice	41324	n/a	n/a	36
728.4516666666667	0	n/a	437072	KeyDown	41324	4	Index	36
728.5933333333334	0	n/a	437157	KeyDown	41324	1	Little	36
728.8650000000000	0	n/a	437320	KeyDown	41324	3	Middle	36
729.0400000000001	0	n/a	437425	KeyDown	41324	2	Ring	36
729.4100000000001	0	n/a	437647	KeyDown	41324	4	Index	36
729.5550000000001	0	n/a	437734	KeyDown	41324	4	Index	36
729.7316666666667	0	n/a	437840	KeyDown	41324	1	Little	36
730.3400000000000	0	n/a	438205	KeyDown	41324	3	Middle	36
730.5066666666667	0	n/a	438305	KeyDown	41324	2	Ring	36
730.7233333333334	0	n/a	438435	KeyDown	41324	4	Index	36
730.8433333333334	0	n/a	438507	KeyDown	41324	4	Index	36
731.0200000000001	0	n/a	438613	KeyDown	41324	1	Little	36
731.4000000000001	0	n/a	438841	KeyDown	41324	3	Middle	36
731.5900000000000	0	n/a	438955	KeyDown	41324	2	Ring	36
731.8116666666667	0	n/a	439088	KeyDown	41324	4	Index	36
731.9216666666667	0	n/a	439154	KeyDown	41324	4	Index	36
732.0866666666667	0	n/a	439253	KeyDown	41324	1	Little	36
732.4766666666667	0	n/a	439487	KeyDown	41324	3	Middle	36
732.8683333333333	0	n/a	439722	KeyDown	41324	2	Ring	36
733.1200000000000	0	n/a	439873	KeyDown	41324	4	Index	36
733.2366666666667	0	n/a	439943	KeyDown	41324	4	Index	36
733.3700000000000	0	n/a	440023	KeyDown	41324	1	Little	36
733.6450000000001	0	n/a	440188	KeyDown	41324	3	Middle	36
733.8100000000001	0	n/a	440287	KeyDown	41324	2	Ring	36
733.9916666666667	0	n/a	440396	KeyDown	41324	4	Index	36
734.1316666666667	0	n/a	440480	KeyDown	41324	4	Index	36
734.2550000000000	0	n/a	440554	KeyDown	41324	1	Little	36
734.5500000000001	0	n/a	440731	KeyDown	41324	3	Middle	36
734.7350000000000	0	n/a	440842	KeyDown	41324	2	Ring	36
734.9433333333334	0	n/a	440967	KeyDown	41324	4	Index	36
735.0916666666667	0	n/a	441056	KeyDown	41324	4	Index	36
735.2350000000000	0	n/a	441142	KeyDown	41324	1	Little	36
735.5416666666667	0	n/a	441326	KeyDown	41324	3	Middle	36
735.6850000000001	0	n/a	441412	KeyDown	41324	2	Ring	36
735.8550000000000	0	n/a	441514	KeyDown	41324	4	Index	36
736.0016666666667	0	n/a	441602	KeyDown	41324	4	Index	36
736.1416666666668	0	n/a	441686	KeyDown	41324	1	Little	36
736.4850000000000	0	n/a	441892	KeyDown	41324	3	Middle	36
736.6366666666668	0	n/a	441983	KeyDown	41324	2	Ring	36
736.7850000000001	0	n/a	442072	KeyDown	41324	4	Index	36
736.9316666666667	0	n/a	442160	KeyDown	41324	4	Index	36
737.0716666666667	0	n/a	442244	KeyDown	41324	1	Little	36
737.4400000000001	0	n/a	442465	KeyDown	41324	3	Middle	36
737.5816666666667	0	n/a	442550	KeyDown	41324	2	Ring	36
737.7700000000001	0	n/a	442663	KeyDown	41324	4	Index	36
737.9100000000001	0	n/a	442747	KeyDown	41324	4	Index	36
738.0366666666667	0	n/a	442823	StopPractice	41324	n/a	n/a	36
738.0383333333334	0	n/a	442824	StartRest	XXXXX	n/a	n/a	36
748.0733333333334	0	n/a	448845	StopRest	XXXXX	n/a	n/a	36
