onset	duration	channel	onset_sample_idx	event_type	target_sequence	keypress_id	finger_label	trial_number
10.1700000000000	0	UPPT001	6103	StartPractice	41324	n/a	n/a	1
11.7283333333333	0	n/a	7038	KeyDown	41324	4	Index	1
12.0333333333333	0	n/a	7221	KeyDown	41324	1	Little	1
12.3600000000000	0	n/a	7417	KeyDown	41324	3	Middle	1
13.1350000000000	0	n/a	7882	KeyDown	41324	2	Ring	1
13.5433333333333	0	n/a	8127	KeyDown	41324	4	Index	1
15.4183333333333	0	n/a	9252	KeyDown	41324	4	Index	1
15.9016666666667	0	n/a	9542	KeyDown	41324	1	Little	1
16.3600000000000	0	n/a	9817	KeyDown	41324	3	Middle	1
16.6416666666667	0	n/a	9986	KeyDown	41324	2	Ring	1
16.8516666666667	0	n/a	10112	KeyDown	41324	4	Index	1
17.1966666666667	0	n/a	10319	KeyDown	41324	4	Index	1
17.7816666666667	0	n/a	10670	KeyDown	41324	1	Little	1
18.2883333333333	0	n/a	10974	KeyDown	41324	3	Middle	1
18.5266666666667	0	n/a	11117	KeyDown	41324	2	Ring	1
18.7316666666667	0	n/a	11240	KeyDown	41324	4	Index	1
19.0116666666667	0	n/a	11408	KeyDown	41324	4	Index	1
19.4416666666667	0	n/a	11666	KeyDown	41324	1	Little	1
19.8416666666667	0	n/a	11906	KeyDown	41324	3	Middle	1
20.0283333333333	0	n/a	12018	KeyDown	41324	2	Ring	1
20.2166666666667	0	n/a	12131	StopPractice	41324	n/a	n/a	1
20.2183333333333	0	n/a	12132	StartRest	XXXXX	n/a	n/a	1
30.2816666666667	0	n/a	18170	StopRest	XXXXX	n/a	n/a	1
30.2833333333333	0	UPPT001	18171	StartPractice	41324	n/a	n/a	2
31.1900000000000	0	n/a	18715	KeyDown	41324	4	Index	2
31.3483333333333	0	n/a	18810	KeyDown	41324	1	Little	2
31.6650000000000	0	n/a	19000	KeyDown	41324	3	Middle	2
31.8216666666667	0	n/a	19094	KeyDown	41324	2	Ring	2
31.9866666666667	0	n/a	19193	KeyDown	41324	4	Index	2
32.5266666666667	0	n/a	19517	KeyDown	41324	4	Index	2
32.7266666666667	0	n/a	19637	KeyDown	41324	1	Little	2
33.0950000000000	0	n/a	19858	KeyDown	41324	3	Middle	2
33.2216666666667	0	n/a	19934	KeyDown	41324	2	Ring	2
33.4283333333333	0	n/a	20058	KeyDown	41324	4	Index	2
33.7300000000000	0	n/a	20239	KeyDown	41324	4	Index	2
33.9800000000000	0	n/a	20389	KeyDown	41324	1	Little	2
34.2750000000000	0	n/a	20566	KeyDown	41324	3	Middle	2
34.4250000000000	0	n/a	20656	KeyDown	41324	2	Ring	2
34.5916666666667	0	n/a	20756	KeyDown	41324	4	Index	2
34.8616666666667	0	n/a	20918	KeyDown	41324	4	Index	2
35.1800000000000	0	n/a	21109	KeyDown	41324	1	Little	2
35.4516666666667	0	n/a	21272	KeyDown	41324	3	Middle	2
35.6350000000000	0	n/a	21382	KeyDown	41324	2	Ring	2
35.7550000000000	0	n/a	21454	KeyDown	41324	4	Index	2
36.0616666666667	0	n/a	21638	KeyDown	41324	4	Index	2
36.4016666666667	0	n/a	21842	KeyDown	41324	1	Little	2
36.7650000000000	0	n/a	22060	KeyDown	41324	3	Middle	2
36.8783333333333	0	n/a	22128	KeyDown	41324	2	Ring	2
37.0266666666667	0	n/a	22217	KeyDown	41324	4	Index	2
37.3366666666667	0	n/a	22403	KeyDown	41324	4	Index	2
37.6750000000000	0	n/a	22606	KeyDown	41324	1	Little	2
38.0850000000000	0	n/a	22852	KeyDown	41324	3	Middle	2
38.2650000000000	0	n/a	22960	KeyDown	41324	2	Ring	2
38.4266666666667	0	n/a	23057	KeyDown	41324	4	Index	2
38.7883333333333	0	n/a	23274	KeyDown	41324	4	Index	2
39.0700000000000	0	n/a	23443	KeyDown	41324	1	Little	2
39.3666666666667	0	n/a	23621	KeyDown	41324	3	Middle	2
39.4950000000000	0	n/a	23698	KeyDown	41324	2	Ring	2
39.5716666666667	0	n/a	23744	KeyDown	41324	4	Index	2
39.8900000000000	0	n/a	23935	KeyDown	41324	4	Index	2
40.1300000000000	0	n/a	24079	KeyDown	41324	1	Little	2
40.3300000000000	0	n/a	24199	StopPractice	41324	n/a	n/a	2
40.3316666666667	0	n/a	24200	StartRest	XXXXX	n/a	n/a	2
50.3683333333333	0	n/a	30222	StopRest	XXXXX	n/a	n/a	2
50.3700000000000	0	UPPT001	30223	StartPractice	41324	n/a	n/a	3
51.0133333333333	0	n/a	30609	KeyDown	41324	4	Index	3
51.1766666666667	0	n/a	30707	KeyDown	41324	1	Little	3
51.4333333333333	0	n/a	30861	KeyDown	41324	3	Middle	3
51.5466666666667	0	n/a	30929	KeyDown	41324	2	Ring	3
51.6650000000000	0	n/a	31000	KeyDown	41324	4	Index	3
51.9233333333333	0	n/a	31155	KeyDown	41324	4	Index	3
52.0966666666667	0	n/a	31259	KeyDown	41324	1	Little	3
52.3366666666667	0	n/a	31403	KeyDown	41324	3	Middle	3
52.4916666666667	0	n/a	31496	KeyDown	41324	2	Ring	3
52.5633333333333	0	n/a	31539	KeyDown	41324	4	Index	3
52.7916666666667	0	n/a	31676	KeyDown	41324	4	Index	3
52.9816666666667	0	n/a	31790	KeyDown	41324	1	Little	3
53.2183333333333	0	n/a	31932	KeyDown	41324	3	Middle	3
53.4216666666667	0	n/a	32054	KeyDown	41324	2	Ring	3
53.4916666666667	0	n/a	32096	KeyDown	41324	4	Index	3
53.8983333333333	0	n/a	32340	KeyDown	41324	4	Index	3
54.2750000000000	0	n/a	32566	KeyDown	41324	1	Little	3
54.5066666666667	0	n/a	32705	KeyDown	41324	3	Middle	3
54.6616666666667	0	n/a	32798	KeyDown	41324	2	Ring	3
54.7716666666667	0	n/a	32864	KeyDown	41324	4	Index	3
54.9983333333333	0	n/a	33000	KeyDown	41324	4	Index	3
55.1950000000000	0	n/a	33118	KeyDown	41324	1	Little	3
55.4150000000000	0	n/a	33250	KeyDown	41324	3	Middle	3
55.5533333333333	0	n/a	33333	KeyDown	41324	2	Ring	3
55.6616666666667	0	n/a	33398	KeyDown	41324	4	Index	3
55.8866666666667	0	n/a	33533	KeyDown	41324	4	Index	3
56.0916666666667	0	n/a	33656	KeyDown	41324	1	Little	3
56.3266666666667	0	n/a	33797	KeyDown	41324	3	Middle	3
56.4516666666667	0	n/a	33872	KeyDown	41324	2	Ring	3
56.5433333333333	0	n/a	33927	KeyDown	41324	4	Index	3
56.8166666666667	0	n/a	34091	KeyDown	41324	4	Index	3
57.0600000000000	0	n/a	34237	KeyDown	41324	1	Little	3
57.3666666666667	0	n/a	34421	KeyDown	41324	3	Middle	3
57.5000000000000	0	n/a	34501	KeyDown	41324	2	Ring	3
57.6083333333333	0	n/a	34566	KeyDown	41324	4	Index	3
57.9033333333333	0	n/a	34743	KeyDown	41324	1	Little	3
57.9650000000000	0	n/a	34780	KeyDown	41324	4	Index	3
58.7966666666667	0	n/a	35279	KeyDown	41324	3	Middle	3
58.9266666666667	0	n/a	35357	KeyDown	41324	2	Ring	3
59.0433333333333	0	n/a	35427	KeyDown	41324	4	Index	3
59.3033333333333	0	n/a	35583	KeyDown	41324	4	Index	3
59.5483333333333	0	n/a	35730	KeyDown	41324	1	Little	3
59.7783333333333	0	n/a	35868	KeyDown	41324	3	Middle	3
59.9133333333333	0	n/a	35949	KeyDown	41324	2	Ring	3
60.0283333333333	0	n/a	36018	KeyDown	41324	4	Index	3
60.2533333333333	0	n/a	36153	KeyDown	41324	4	Index	3
60.4166666666667	0	n/a	36251	StopPractice	41324	n/a	n/a	3
60.4183333333333	0	n/a	36252	StartRest	XXXXX	n/a	n/a	3
70.4600000000000	0	n/a	42277	StopRest	XXXXX	n/a	n/a	3
70.4616666666667	0	UPPT001	42278	StartPractice	41324	n/a	n/a	4
71.0650000000000	0	n/a	42640	KeyDown	41324	4	Index	4
71.2216666666667	0	n/a	42734	KeyDown	41324	1	Little	4
71.4583333333333	0	n/a	42876	KeyDown	41324	3	Middle	4
71.5666666666667	0	n/a	42941	KeyDown	41324	2	Ring	4
71.6633333333333	0	n/a	42999	KeyDown	41324	4	Index	4
71.8766666666667	0	n/a	43127	KeyDown	41324	4	Index	4
72.0850000000000	0	n/a	43252	KeyDown	41324	1	Little	4
72.2883333333333	0	n/a	43374	KeyDown	41324	3	Middle	4
72.4566666666667	0	n/a	43475	KeyDown	41324	2	Ring	4
72.5533333333333	0	n/a	43533	KeyDown	41324	4	Index	4
72.8183333333333	0	n/a	43692	KeyDown	41324	4	Index	4
73.0600000000000	0	n/a	43837	KeyDown	41324	1	Little	4
73.3233333333333	0	n/a	43995	KeyDown	41324	3	Middle	4
73.4583333333333	0	n/a	44076	KeyDown	41324	2	Ring	4
73.5683333333333	0	n/a	44142	KeyDown	41324	4	Index	4
73.7983333333333	0	n/a	44280	KeyDown	41324	4	Index	4
74.0033333333333	0	n/a	44403	KeyDown	41324	1	Little	4
74.2283333333333	0	n/a	44538	KeyDown	41324	3	Middle	4
74.3633333333333	0	n/a	44619	KeyDown	41324	2	Ring	4
74.4466666666667	0	n/a	44669	KeyDown	41324	4	Index	4
74.6583333333333	0	n/a	44796	KeyDown	41324	4	Index	4
74.8800000000000	0	n/a	44929	KeyDown	41324	1	Little	4
75.2650000000000	0	n/a	45160	KeyDown	41324	3	Middle	4
75.3933333333333	0	n/a	45237	KeyDown	41324	2	Ring	4
75.5033333333333	0	n/a	45303	KeyDown	41324	4	Index	4
75.7000000000000	0	n/a	45421	KeyDown	41324	4	Index	4
75.9450000000000	0	n/a	45568	KeyDown	41324	1	Little	4
76.3600000000000	0	n/a	45817	KeyDown	41324	3	Middle	4
76.4233333333333	0	n/a	45855	KeyDown	41324	2	Ring	4
76.5833333333333	0	n/a	45951	KeyDown	41324	4	Index	4
76.8416666666667	0	n/a	46106	KeyDown	41324	4	Index	4
76.9633333333333	0	n/a	46179	KeyDown	41324	4	Index	4
77.1766666666667	0	n/a	46307	KeyDown	41324	1	Little	4
77.6083333333333	0	n/a	46566	KeyDown	41324	3	Middle	4
77.7083333333333	0	n/a	46626	KeyDown	41324	2	Ring	4
77.8300000000000	0	n/a	46699	KeyDown	41324	4	Index	4
78.0500000000000	0	n/a	46831	KeyDown	41324	4	Index	4
78.2366666666667	0	n/a	46943	KeyDown	41324	1	Little	4
78.4700000000000	0	n/a	47083	KeyDown	41324	3	Middle	4
78.5733333333333	0	n/a	47145	KeyDown	41324	2	Ring	4
78.6750000000000	0	n/a	47206	KeyDown	41324	4	Index	4
78.9000000000000	0	n/a	47341	KeyDown	41324	4	Index	4
79.0866666666667	0	n/a	47453	KeyDown	41324	1	Little	4
79.3383333333333	0	n/a	47604	KeyDown	41324	3	Middle	4
79.4516666666667	0	n/a	47672	KeyDown	41324	2	Ring	4
79.5866666666667	0	n/a	47753	KeyDown	41324	4	Index	4
79.8033333333333	0	n/a	47883	KeyDown	41324	4	Index	4
80.0050000000000	0	n/a	48004	KeyDown	41324	1	Little	4
80.2383333333333	0	n/a	48144	KeyDown	41324	3	Middle	4
80.3683333333333	0	n/a	48222	KeyDown	41324	2	Ring	4
80.4650000000000	0	n/a	48280	KeyDown	41324	4	Index	4
80.5083333333333	0	n/a	48306	StopPractice	41324	n/a	n/a	4
80.5100000000000	0	n/a	48307	StartRest	XXXXX	n/a	n/a	4
90.5533333333333	0	n/a	54333	StopRest	XXXXX	n/a	n/a	4
90.5550000000000	0	UPPT001	54334	StartPractice	41324	n/a	n/a	5
91.0016666666667	0	n/a	54602	KeyDown	41324	4	Index	5
91.1283333333333	0	n/a	54678	KeyDown	41324	1	Little	5
91.3816666666667	0	n/a	54830	KeyDown	41324	3	Middle	5
91.4483333333333	0	n/a	54870	KeyDown	41324	2	Ring	5
91.5683333333333	0	n/a	54942	KeyDown	41324	4	Index	5
91.8016666666667	0	n/a	55082	KeyDown	41324	4	Index	5
91.9850000000000	0	n/a	55192	KeyDown	41324	1	Little	5
92.1933333333333	0	n/a	55317	KeyDown	41324	3	Middle	5
92.3433333333333	0	n/a	55407	KeyDown	41324	2	Ring	5
92.4433333333333	0	n/a	55467	KeyDown	41324	4	Index	5
92.6633333333333	0	n/a	55599	KeyDown	41324	4	Index	5
92.8566666666667	0	n/a	55715	KeyDown	41324	1	Little	5
93.0866666666667	0	n/a	55853	KeyDown	41324	3	Middle	5
93.2483333333333	0	n/a	55950	KeyDown	41324	2	Ring	5
93.3333333333333	0	n/a	56001	KeyDown	41324	4	Index	5
93.5466666666667	0	n/a	56129	KeyDown	41324	4	Index	5
93.7583333333333	0	n/a	56256	KeyDown	41324	1	Little	5
93.9833333333333	0	n/a	56391	KeyDown	41324	3	Middle	5
94.0866666666667	0	n/a	56453	KeyDown	41324	2	Ring	5
94.2250000000000	0	n/a	56536	KeyDown	41324	4	Index	5
94.4283333333333	0	n/a	56658	KeyDown	41324	4	Index	5
94.6333333333333	0	n/a	56781	KeyDown	41324	1	Little	5
94.8650000000000	0	n/a	56920	KeyDown	41324	3	Middle	5
94.9816666666667	0	n/a	56990	KeyDown	41324	2	Ring	5
95.0883333333333	0	n/a	57054	KeyDown	41324	4	Index	5
95.2883333333333	0	n/a	57174	KeyDown	41324	4	Index	5
95.4583333333333	0	n/a	57276	KeyDown	41324	1	Little	5
95.7166666666667	0	n/a	57431	KeyDown	41324	3	Middle	5
95.8950000000000	0	n/a	57538	KeyDown	41324	2	Ring	5
96.0216666666667	0	n/a	57614	KeyDown	41324	4	Index	5
96.2483333333333	0	n/a	57750	KeyDown	41324	4	Index	5
96.4283333333333	0	n/a	57858	KeyDown	41324	1	Little	5
96.7100000000000	0	n/a	58027	KeyDown	41324	3	Middle	5
96.8450000000000	0	n/a	58108	KeyDown	41324	2	Ring	5
96.9383333333333	0	n/a	58164	KeyDown	41324	4	Index	5
97.1583333333333	0	n/a	58296	KeyDown	41324	4	Index	5
97.3183333333333	0	n/a	58392	KeyDown	41324	1	Little	5
97.5550000000000	0	n/a	58534	KeyDown	41324	3	Middle	5
97.6733333333333	0	n/a	58605	KeyDown	41324	2	Ring	5
97.7683333333333	0	n/a	58662	KeyDown	41324	4	Index	5
98.0150000000000	0	n/a	58810	KeyDown	41324	4	Index	5
98.2150000000000	0	n/a	58930	KeyDown	41324	1	Little	5
98.4366666666667	0	n/a	59063	KeyDown	41324	3	Middle	5
98.5700000000000	0	n/a	59143	KeyDown	41324	2	Ring	5
98.6933333333333	0	n/a	59217	KeyDown	41324	4	Index	5
98.8833333333333	0	n/a	59331	KeyDown	41324	4	Index	5
99.0533333333333	0	n/a	59433	KeyDown	41324	1	Little	5
99.3633333333333	0	n/a	59619	KeyDown	41324	3	Middle	5
99.4966666666667	0	n/a	59699	KeyDown	41324	2	Ring	5
99.6116666666667	0	n/a	59768	KeyDown	41324	4	Index	5
99.8383333333333	0	n/a	59904	KeyDown	41324	4	Index	5
100.0566666666667	0	n/a	60035	KeyDown	41324	1	Little	5
100.2950000000000	0	n/a	60178	KeyDown	41324	3	Middle	5
100.4400000000000	0	n/a	60265	KeyDown	41324	2	Ring	5
100.5450000000000	0	n/a	60328	KeyDown	41324	4	Index	5
100.6016666666667	0	n/a	60362	StopPractice	41324	n/a	n/a	5
100.6033333333333	0	n/a	60363	StartRest	XXXXX	n/a	n/a	5
110.6600000000000	0	n/a	66397	StopRest	XXXXX	n/a	n/a	5
110.6616666666667	0	UPPT001	66398	StartPractice	41324	n/a	n/a	6
111.2516666666667	0	n/a	66752	KeyDown	41324	4	Index	6
111.3900000000000	0	n/a	66835	KeyDown	41324	1	Little	6
111.6583333333333	0	n/a	66996	KeyDown	41324	3	Middle	6
111.7500000000000	0	n/a	67051	KeyDown	41324	2	Ring	6
111.9266666666667	0	n/a	67157	KeyDown	41324	4	Index	6
112.1833333333333	0	n/a	67311	KeyDown	41324	4	Index	6
112.3700000000000	0	n/a	67423	KeyDown	41324	1	Little	6
112.6133333333333	0	n/a	67569	KeyDown	41324	3	Middle	6
112.7333333333333	0	n/a	67641	KeyDown	41324	2	Ring	6
112.8250000000000	0	n/a	67696	KeyDown	41324	4	Index	6
113.0366666666667	0	n/a	67823	KeyDown	41324	4	Index	6
113.1783333333333	0	n/a	67908	KeyDown	41324	1	Little	6
113.4366666666667	0	n/a	68063	KeyDown	41324	3	Middle	6
113.5400000000000	0	n/a	68125	KeyDown	41324	2	Ring	6
113.6550000000000	0	n/a	68194	KeyDown	41324	4	Index	6
113.8683333333333	0	n/a	68322	KeyDown	41324	4	Index	6
114.0283333333333	0	n/a	68418	KeyDown	41324	1	Little	6
114.2650000000000	0	n/a	68560	KeyDown	41324	3	Middle	6
114.3800000000000	0	n/a	68629	KeyDown	41324	2	Ring	6
114.5133333333333	0	n/a	68709	KeyDown	41324	4	Index	6
114.7300000000000	0	n/a	68839	KeyDown	41324	4	Index	6
114.8600000000000	0	n/a	68917	KeyDown	41324	1	Little	6
115.1483333333333	0	n/a	69090	KeyDown	41324	3	Middle	6
115.2800000000000	0	n/a	69169	KeyDown	41324	2	Ring	6
115.3866666666667	0	n/a	69233	KeyDown	41324	4	Index	6
115.5866666666667	0	n/a	69353	KeyDown	41324	4	Index	6
115.6983333333333	0	n/a	69420	KeyDown	41324	1	Little	6
116.0966666666667	0	n/a	69659	KeyDown	41324	3	Middle	6
116.1833333333333	0	n/a	69711	KeyDown	41324	2	Ring	6
116.3650000000000	0	n/a	69820	KeyDown	41324	4	Index	6
116.6250000000000	0	n/a	69976	KeyDown	41324	4	Index	6
116.8333333333333	0	n/a	70101	KeyDown	41324	1	Little	6
117.1033333333333	0	n/a	70263	KeyDown	41324	3	Middle	6
117.1550000000000	0	n/a	70294	KeyDown	41324	2	Ring	6
117.5566666666667	0	n/a	70535	KeyDown	41324	4	Index	6
117.8500000000000	0	n/a	70711	KeyDown	41324	4	Index	6
118.1333333333333	0	n/a	70881	KeyDown	41324	1	Little	6
118.4983333333333	0	n/a	71100	KeyDown	41324	3	Middle	6
118.6316666666667	0	n/a	71180	KeyDown	41324	2	Ring	6
118.7500000000000	0	n/a	71251	KeyDown	41324	4	Index	6
118.9866666666667	0	n/a	71393	KeyDown	41324	4	Index	6
119.1383333333333	0	n/a	71484	KeyDown	41324	1	Little	6
119.3850000000000	0	n/a	71632	KeyDown	41324	3	Middle	6
119.4750000000000	0	n/a	71686	KeyDown	41324	2	Ring	6
119.6033333333333	0	n/a	71763	KeyDown	41324	4	Index	6
119.8166666666667	0	n/a	71891	KeyDown	41324	4	Index	6
119.9733333333333	0	n/a	71985	KeyDown	41324	1	Little	6
120.2250000000000	0	n/a	72136	KeyDown	41324	3	Middle	6
120.3533333333333	0	n/a	72213	KeyDown	41324	2	Ring	6
120.4450000000000	0	n/a	72268	KeyDown	41324	4	Index	6
120.7083333333333	0	n/a	72426	StopPractice	41324	n/a	n/a	6
120.7100000000000	0	n/a	72427	StartRest	XXXXX	n/a	n/a	6
130.7500000000000	0	n/a	78451	StopRest	XXXXX	n/a	n/a	6
130.7516666666667	0	UPPT001	78452	StartPractice	41324	n/a	n/a	7
131.1900000000000	0	n/a	78715	KeyDown	41324	4	Index	7
131.3416666666667	0	n/a	78806	KeyDown	41324	1	Little	7
131.6250000000000	0	n/a	78976	KeyDown	41324	3	Middle	7
131.7300000000000	0	n/a	79039	KeyDown	41324	2	Ring	7
131.8800000000000	0	n/a	79129	KeyDown	41324	4	Index	7
132.1000000000000	0	n/a	79261	KeyDown	41324	4	Index	7
132.2350000000000	0	n/a	79342	KeyDown	41324	1	Little	7
132.5383333333334	0	n/a	79524	KeyDown	41324	3	Middle	7
132.6483333333333	0	n/a	79590	KeyDown	41324	2	Ring	7
132.7850000000000	0	n/a	79672	KeyDown	41324	4	Index	7
133.0150000000000	0	n/a	79810	KeyDown	41324	4	Index	7
133.1916666666667	0	n/a	79916	KeyDown	41324	1	Little	7
133.4766666666667	0	n/a	80087	KeyDown	41324	3	Middle	7
133.5850000000000	0	n/a	80152	KeyDown	41324	2	Ring	7
133.6883333333333	0	n/a	80214	KeyDown	41324	4	Index	7
133.9033333333333	0	n/a	80343	KeyDown	41324	4	Index	7
134.0683333333333	0	n/a	80442	KeyDown	41324	1	Little	7
134.3233333333334	0	n/a	80595	KeyDown	41324	3	Middle	7
134.4333333333333	0	n/a	80661	KeyDown	41324	2	Ring	7
134.5350000000000	0	n/a	80722	KeyDown	41324	4	Index	7
134.7500000000000	0	n/a	80851	KeyDown	41324	4	Index	7
134.9000000000000	0	n/a	80941	KeyDown	41324	1	Little	7
135.1633333333334	0	n/a	81099	KeyDown	41324	3	Middle	7
135.2633333333333	0	n/a	81159	KeyDown	41324	2	Ring	7
135.3983333333333	0	n/a	81240	KeyDown	41324	4	Index	7
135.6200000000000	0	n/a	81373	KeyDown	41324	4	Index	7
135.7650000000000	0	n/a	81460	KeyDown	41324	1	Little	7
136.0200000000000	0	n/a	81613	KeyDown	41324	3	Middle	7
136.1200000000000	0	n/a	81673	KeyDown	41324	2	Ring	7
136.2716666666667	0	n/a	81764	KeyDown	41324	4	Index	7
136.4733333333333	0	n/a	81885	KeyDown	41324	4	Index	7
136.5883333333333	0	n/a	81954	KeyDown	41324	1	Little	7
136.8433333333333	0	n/a	82107	KeyDown	41324	3	Middle	7
136.9683333333333	0	n/a	82182	KeyDown	41324	2	Ring	7
137.1000000000000	0	n/a	82261	KeyDown	41324	4	Index	7
137.3200000000000	0	n/a	82393	KeyDown	41324	4	Index	7
137.4550000000000	0	n/a	82474	KeyDown	41324	1	Little	7
137.9350000000000	0	n/a	82762	KeyDown	41324	3	Middle	7
138.0316666666667	0	n/a	82820	KeyDown	41324	2	Ring	7
138.1883333333333	0	n/a	82914	KeyDown	41324	4	Index	7
138.4550000000000	0	n/a	83074	KeyDown	41324	4	Index	7
138.7883333333334	0	n/a	83274	KeyDown	41324	3	Middle	7
139.1716666666667	0	n/a	83504	KeyDown	41324	1	Little	7
139.4500000000000	0	n/a	83671	KeyDown	41324	3	Middle	7
139.5766666666667	0	n/a	83747	KeyDown	41324	4	Index	7
139.6683333333334	0	n/a	83802	KeyDown	41324	2	Ring	7
140.1850000000000	0	n/a	84112	KeyDown	41324	4	Index	7
140.5000000000000	0	n/a	84301	KeyDown	41324	3	Middle	7
140.7983333333333	0	n/a	84480	StopPractice	41324	n/a	n/a	7
140.8000000000000	0	n/a	84481	StartRest	XXXXX	n/a	n/a	7
150.8450000000000	0	n/a	90508	StopRest	XXXXX	n/a	n/a	7
150.8466666666667	0	UPPT001	90509	StartPractice	41324	n/a	n/a	8
151.3200000000000	0	n/a	90793	KeyDown	41324	4	Index	8
151.4883333333333	0	n/a	90894	KeyDown	41324	1	Little	8
151.7783333333333	0	n/a	91068	KeyDown	41324	3	Middle	8
151.8800000000000	0	n/a	91129	KeyDown	41324	2	Ring	8
151.9950000000000	0	n/a	91198	KeyDown	41324	4	Index	8
152.2200000000000	0	n/a	91333	KeyDown	41324	4	Index	8
152.3600000000000	0	n/a	91417	KeyDown	41324	1	Little	8
152.6566666666667	0	n/a	91595	KeyDown	41324	3	Middle	8
152.7566666666667	0	n/a	91655	KeyDown	41324	2	Ring	8
152.8850000000000	0	n/a	91732	KeyDown	41324	4	Index	8
153.1200000000000	0	n/a	91873	KeyDown	41324	4	Index	8
153.3550000000000	0	n/a	92014	KeyDown	41324	1	Little	8
153.8833333333334	0	n/a	92331	KeyDown	41324	3	Middle	8
154.0083333333334	0	n/a	92406	KeyDown	41324	2	Ring	8
154.1466666666667	0	n/a	92489	KeyDown	41324	4	Index	8
154.3666666666667	0	n/a	92621	KeyDown	41324	4	Index	8
154.4650000000000	0	n/a	92680	KeyDown	41324	1	Little	8
154.7633333333333	0	n/a	92859	KeyDown	41324	3	Middle	8
154.8516666666667	0	n/a	92912	KeyDown	41324	2	Ring	8
154.9916666666667	0	n/a	92996	KeyDown	41324	4	Index	8
155.2133333333333	0	n/a	93129	KeyDown	41324	4	Index	8
155.3816666666667	0	n/a	93230	KeyDown	41324	1	Little	8
155.6950000000000	0	n/a	93418	KeyDown	41324	3	Middle	8
155.7650000000000	0	n/a	93460	KeyDown	41324	2	Ring	8
155.9016666666667	0	n/a	93542	KeyDown	41324	2	Ring	8
156.0683333333334	0	n/a	93642	KeyDown	41324	4	Index	8
156.4633333333333	0	n/a	93879	KeyDown	41324	4	Index	8
156.7233333333334	0	n/a	94035	KeyDown	41324	1	Little	8
157.2083333333333	0	n/a	94326	KeyDown	41324	3	Middle	8
157.3616666666667	0	n/a	94418	KeyDown	41324	2	Ring	8
157.4916666666667	0	n/a	94496	KeyDown	41324	4	Index	8
157.7233333333334	0	n/a	94635	KeyDown	41324	4	Index	8
157.9366666666667	0	n/a	94763	KeyDown	41324	1	Little	8
158.1950000000000	0	n/a	94918	KeyDown	41324	3	Middle	8
158.2933333333334	0	n/a	94977	KeyDown	41324	2	Ring	8
158.4316666666667	0	n/a	95060	KeyDown	41324	4	Index	8
158.6366666666667	0	n/a	95183	KeyDown	41324	4	Index	8
158.8283333333333	0	n/a	95298	KeyDown	41324	1	Little	8
159.0950000000000	0	n/a	95458	KeyDown	41324	3	Middle	8
159.2050000000000	0	n/a	95524	KeyDown	41324	2	Ring	8
159.3500000000000	0	n/a	95611	KeyDown	41324	4	Index	8
159.5766666666667	0	n/a	95747	KeyDown	41324	4	Index	8
159.7416666666667	0	n/a	95846	KeyDown	41324	1	Little	8
160.0283333333333	0	n/a	96018	KeyDown	41324	3	Middle	8
160.1816666666667	0	n/a	96110	KeyDown	41324	2	Ring	8
160.3000000000000	0	n/a	96181	KeyDown	41324	4	Index	8
160.4966666666667	0	n/a	96299	KeyDown	41324	4	Index	8
160.6733333333333	0	n/a	96405	KeyDown	41324	1	Little	8
160.8933333333333	0	n/a	96537	StopPractice	41324	n/a	n/a	8
160.8950000000000	0	n/a	96538	StartRest	XXXXX	n/a	n/a	8
170.9416666666667	0	n/a	102566	StopRest	XXXXX	n/a	n/a	8
170.9433333333334	0	UPPT001	102567	StartPractice	41324	n/a	n/a	9
171.4150000000000	0	n/a	102850	KeyDown	41324	4	Index	9
171.5433333333334	0	n/a	102927	KeyDown	41324	1	Little	9
171.8733333333333	0	n/a	103125	KeyDown	41324	3	Middle	9
171.9500000000000	0	n/a	103171	KeyDown	41324	2	Ring	9
172.1266666666667	0	n/a	103277	KeyDown	41324	4	Index	9
172.3800000000000	0	n/a	103429	KeyDown	41324	4	Index	9
172.6616666666667	0	n/a	103598	KeyDown	41324	1	Little	9
173.0266666666667	0	n/a	103817	KeyDown	41324	3	Middle	9
173.1150000000000	0	n/a	103870	KeyDown	41324	2	Ring	9
173.2366666666667	0	n/a	103943	KeyDown	41324	4	Index	9
173.4416666666667	0	n/a	104066	KeyDown	41324	4	Index	9
173.5850000000000	0	n/a	104152	KeyDown	41324	1	Little	9
173.8366666666667	0	n/a	104303	KeyDown	41324	3	Middle	9
173.9266666666667	0	n/a	104357	KeyDown	41324	2	Ring	9
174.0600000000000	0	n/a	104437	KeyDown	41324	4	Index	9
174.2766666666667	0	n/a	104567	KeyDown	41324	4	Index	9
174.4600000000000	0	n/a	104677	KeyDown	41324	1	Little	9
174.6850000000000	0	n/a	104812	KeyDown	41324	3	Middle	9
174.8050000000000	0	n/a	104884	KeyDown	41324	2	Ring	9
174.9166666666667	0	n/a	104951	KeyDown	41324	4	Index	9
175.1116666666667	0	n/a	105068	KeyDown	41324	4	Index	9
175.2516666666667	0	n/a	105152	KeyDown	41324	1	Little	9
175.5283333333333	0	n/a	105318	KeyDown	41324	3	Middle	9
175.6416666666667	0	n/a	105386	KeyDown	41324	2	Ring	9
175.7750000000000	0	n/a	105466	KeyDown	41324	4	Index	9
175.9716666666667	0	n/a	105584	KeyDown	41324	4	Index	9
176.1066666666667	0	n/a	105665	KeyDown	41324	1	Little	9
176.4100000000000	0	n/a	105847	KeyDown	41324	3	Middle	9
176.5550000000000	0	n/a	105934	KeyDown	41324	2	Ring	9
176.6833333333333	0	n/a	106011	KeyDown	41324	4	Index	9
176.8916666666667	0	n/a	106136	KeyDown	41324	4	Index	9
177.0383333333334	0	n/a	106224	KeyDown	41324	1	Little	9
177.3416666666667	0	n/a	106406	KeyDown	41324	3	Middle	9
177.4650000000000	0	n/a	106480	KeyDown	41324	2	Ring	9
177.6116666666667	0	n/a	106568	KeyDown	41324	4	Index	9
177.8266666666667	0	n/a	106697	KeyDown	41324	4	Index	9
177.9716666666667	0	n/a	106784	KeyDown	41324	1	Little	9
178.5166666666667	0	n/a	107111	KeyDown	41324	3	Middle	9
178.6266666666667	0	n/a	107177	KeyDown	41324	2	Ring	9
178.8016666666667	0	n/a	107282	KeyDown	41324	4	Index	9
179.6283333333334	0	n/a	107778	KeyDown	41324	4	Index	9
180.1050000000000	0	n/a	108064	KeyDown	41324	1	Little	9
180.4616666666667	0	n/a	108278	KeyDown	41324	2	Ring	9
180.9900000000000	0	n/a	108595	StopPractice	41324	n/a	n/a	9
180.9916666666667	0	n/a	108596	StartRest	XXXXX	n/a	n/a	9
191.0450000000000	0	n/a	114628	StopRest	XXXXX	n/a	n/a	9
191.0466666666667	0	UPPT001	114629	StartPractice	41324	n/a	n/a	10
191.5183333333333	0	n/a	114912	KeyDown	41324	4	Index	10
191.6383333333333	0	n/a	114984	KeyDown	41324	1	Little	10
191.9050000000000	0	n/a	115144	KeyDown	41324	3	Middle	10
192.0250000000000	0	n/a	115216	KeyDown	41324	2	Ring	10
192.1400000000000	0	n/a	115285	KeyDown	41324	4	Index	10
192.3133333333333	0	n/a	115389	KeyDown	41324	4	Index	10
192.4816666666667	0	n/a	115490	KeyDown	41324	1	Little	10
192.7133333333333	0	n/a	115629	KeyDown	41324	3	Middle	10
192.8333333333333	0	n/a	115701	KeyDown	41324	2	Ring	10
192.9550000000000	0	n/a	115774	KeyDown	41324	4	Index	10
193.1583333333334	0	n/a	115896	KeyDown	41324	4	Index	10
193.3366666666667	0	n/a	116003	KeyDown	41324	1	Little	10
193.5766666666667	0	n/a	116147	KeyDown	41324	3	Middle	10
193.6850000000000	0	n/a	116212	KeyDown	41324	2	Ring	10
193.7983333333333	0	n/a	116280	KeyDown	41324	4	Index	10
194.0016666666667	0	n/a	116402	KeyDown	41324	4	Index	10
194.1416666666667	0	n/a	116486	KeyDown	41324	1	Little	10
194.3900000000000	0	n/a	116635	KeyDown	41324	3	Middle	10
194.5033333333334	0	n/a	116703	KeyDown	41324	2	Ring	10
194.6316666666667	0	n/a	116780	KeyDown	41324	4	Index	10
194.8400000000000	0	n/a	116905	KeyDown	41324	4	Index	10
194.9816666666667	0	n/a	116990	KeyDown	41324	1	Little	10
195.2800000000000	0	n/a	117169	KeyDown	41324	3	Middle	10
195.4233333333333	0	n/a	117255	KeyDown	41324	2	Ring	10
195.5716666666667	0	n/a	117344	KeyDown	41324	4	Index	10
195.7750000000000	0	n/a	117466	KeyDown	41324	4	Index	10
195.9683333333333	0	n/a	117582	KeyDown	41324	1	Little	10
196.6050000000000	0	n/a	117964	KeyDown	41324	3	Middle	10
196.7200000000000	0	n/a	118033	KeyDown	41324	2	Ring	10
196.9000000000000	0	n/a	118141	KeyDown	41324	4	Index	10
197.2750000000000	0	n/a	118366	KeyDown	41324	4	Index	10
197.7950000000000	0	n/a	118678	KeyDown	41324	1	Little	10
198.1183333333333	0	n/a	118872	KeyDown	41324	3	Middle	10
198.2200000000000	0	n/a	118933	KeyDown	41324	2	Ring	10
198.3216666666667	0	n/a	118994	KeyDown	41324	4	Index	10
198.5400000000000	0	n/a	119125	KeyDown	41324	4	Index	10
198.7050000000000	0	n/a	119224	KeyDown	41324	1	Little	10
198.9733333333334	0	n/a	119385	KeyDown	41324	3	Middle	10
199.0666666666667	0	n/a	119441	KeyDown	41324	2	Ring	10
199.1733333333333	0	n/a	119505	KeyDown	41324	4	Index	10
199.3983333333333	0	n/a	119640	KeyDown	41324	4	Index	10
199.6350000000000	0	n/a	119782	KeyDown	41324	1	Little	10
199.9700000000000	0	n/a	119983	KeyDown	41324	3	Middle	10
200.1183333333333	0	n/a	120072	KeyDown	41324	2	Ring	10
200.3000000000000	0	n/a	120181	KeyDown	41324	4	Index	10
200.9250000000000	0	n/a	120556	KeyDown	41324	4	Index	10
201.0933333333333	0	n/a	120657	StopPractice	41324	n/a	n/a	10
201.0950000000000	0	n/a	120658	StartRest	XXXXX	n/a	n/a	10
211.1333333333334	0	n/a	126681	StopRest	XXXXX	n/a	n/a	10
211.1350000000000	0	UPPT001	126682	StartPractice	41324	n/a	n/a	11
212.0750000000000	0	n/a	127246	KeyDown	41324	4	Index	11
212.2366666666667	0	n/a	127343	KeyDown	41324	1	Little	11
212.6383333333333	0	n/a	127584	KeyDown	41324	3	Middle	11
212.7650000000000	0	n/a	127660	KeyDown	41324	2	Ring	11
212.8883333333333	0	n/a	127734	KeyDown	41324	4	Index	11
213.1983333333334	0	n/a	127920	KeyDown	41324	4	Index	11
213.4516666666667	0	n/a	128072	KeyDown	41324	1	Little	11
213.6616666666667	0	n/a	128198	KeyDown	41324	3	Middle	11
213.7733333333333	0	n/a	128265	KeyDown	41324	2	Ring	11
213.8816666666667	0	n/a	128330	KeyDown	41324	4	Index	11
214.0516666666667	0	n/a	128432	KeyDown	41324	4	Index	11
214.2366666666667	0	n/a	128543	KeyDown	41324	1	Little	11
214.4716666666667	0	n/a	128684	KeyDown	41324	3	Middle	11
214.5816666666667	0	n/a	128750	KeyDown	41324	2	Ring	11
214.6883333333334	0	n/a	128814	KeyDown	41324	4	Index	11
214.8766666666667	0	n/a	128927	KeyDown	41324	4	Index	11
215.1116666666667	0	n/a	129068	KeyDown	41324	1	Little	11
215.5266666666667	0	n/a	129317	KeyDown	41324	3	Middle	11
215.6366666666667	0	n/a	129383	KeyDown	41324	2	Ring	11
215.7550000000000	0	n/a	129454	KeyDown	41324	4	Index	11
215.9633333333333	0	n/a	129579	KeyDown	41324	4	Index	11
216.1166666666667	0	n/a	129671	KeyDown	41324	1	Little	11
216.3816666666667	0	n/a	129830	KeyDown	41324	3	Middle	11
216.4916666666667	0	n/a	129896	KeyDown	41324	2	Ring	11
216.6100000000000	0	n/a	129967	KeyDown	41324	4	Index	11
216.7816666666667	0	n/a	130070	KeyDown	41324	4	Index	11
216.9633333333333	0	n/a	130179	KeyDown	41324	1	Little	11
217.2033333333333	0	n/a	130323	KeyDown	41324	3	Middle	11
217.3133333333334	0	n/a	130389	KeyDown	41324	2	Ring	11
217.4533333333333	0	n/a	130473	KeyDown	41324	4	Index	11
217.6500000000000	0	n/a	130591	KeyDown	41324	4	Index	11
217.9083333333334	0	n/a	130746	KeyDown	41324	1	Little	11
218.3433333333333	0	n/a	131007	KeyDown	41324	3	Middle	11
218.4750000000000	0	n/a	131086	KeyDown	41324	2	Ring	11
218.6066666666667	0	n/a	131165	KeyDown	41324	4	Index	11
218.8766666666667	0	n/a	131327	KeyDown	41324	4	Index	11
219.4383333333334	0	n/a	131664	KeyDown	41324	1	Little	11
219.6983333333334	0	n/a	131820	KeyDown	41324	3	Middle	11
219.7966666666667	0	n/a	131879	KeyDown	41324	2	Ring	11
219.8983333333333	0	n/a	131940	KeyDown	41324	4	Index	11
220.0983333333334	0	n/a	132060	KeyDown	41324	4	Index	11
220.2766666666667	0	n/a	132167	KeyDown	41324	1	Little	11
220.5366666666667	0	n/a	132323	KeyDown	41324	3	Middle	11
220.6216666666667	0	n/a	132374	KeyDown	41324	2	Ring	11
220.7666666666667	0	n/a	132461	KeyDown	41324	4	Index	11
220.9733333333334	0	n/a	132585	KeyDown	41324	4	Index	11
221.1816666666667	0	n/a	132710	StopPractice	41324	n/a	n/a	11
221.1833333333333	0	n/a	132711	StartRest	XXXXX	n/a	n/a	11
231.2250000000000	0	n/a	138736	StopRest	XXXXX	n/a	n/a	11
231.2266666666667	0	UPPT001	138737	StartPractice	41324	n/a	n/a	12
231.6550000000000	0	n/a	138994	KeyDown	41324	4	Index	12
231.7766666666667	0	n/a	139067	KeyDown	41324	1	Little	12
232.0533333333333	0	n/a	139233	KeyDown	41324	3	Middle	12
232.2183333333334	0	n/a	139332	KeyDown	41324	2	Ring	12
232.3700000000000	0	n/a	139423	KeyDown	41324	4	Index	12
232.6583333333334	0	n/a	139596	KeyDown	41324	4	Index	12
232.8650000000000	0	n/a	139720	KeyDown	41324	1	Little	12
233.0816666666667	0	n/a	139850	KeyDown	41324	3	Middle	12
233.2200000000000	0	n/a	139933	KeyDown	41324	2	Ring	12
233.3200000000000	0	n/a	139993	KeyDown	41324	4	Index	12
233.6033333333334	0	n/a	140163	KeyDown	41324	4	Index	12
233.7716666666667	0	n/a	140264	KeyDown	41324	1	Little	12
234.0233333333333	0	n/a	140415	KeyDown	41324	3	Middle	12
234.1516666666667	0	n/a	140492	KeyDown	41324	2	Ring	12
234.2583333333334	0	n/a	140556	KeyDown	41324	4	Index	12
234.4350000000000	0	n/a	140662	KeyDown	41324	4	Index	12
234.6383333333333	0	n/a	140784	KeyDown	41324	1	Little	12
234.9133333333334	0	n/a	140949	KeyDown	41324	3	Middle	12
235.0350000000000	0	n/a	141022	KeyDown	41324	2	Ring	12
235.1733333333333	0	n/a	141105	KeyDown	41324	4	Index	12
235.3650000000000	0	n/a	141220	KeyDown	41324	4	Index	12
235.5233333333333	0	n/a	141315	KeyDown	41324	1	Little	12
235.8100000000000	0	n/a	141487	KeyDown	41324	3	Middle	12
236.0083333333334	0	n/a	141606	KeyDown	41324	2	Ring	12
236.1416666666667	0	n/a	141686	KeyDown	41324	4	Index	12
236.3866666666667	0	n/a	141833	KeyDown	41324	4	Index	12
236.6433333333333	0	n/a	141987	KeyDown	41324	1	Little	12
236.9216666666667	0	n/a	142154	KeyDown	41324	3	Middle	12
237.0650000000000	0	n/a	142240	KeyDown	41324	2	Ring	12
237.2050000000000	0	n/a	142324	KeyDown	41324	4	Index	12
237.3983333333333	0	n/a	142440	KeyDown	41324	4	Index	12
237.5333333333334	0	n/a	142521	KeyDown	41324	1	Little	12
237.8083333333333	0	n/a	142686	KeyDown	41324	3	Middle	12
238.0216666666667	0	n/a	142814	KeyDown	41324	2	Ring	12
238.1616666666667	0	n/a	142898	KeyDown	41324	4	Index	12
238.3616666666667	0	n/a	143018	KeyDown	41324	4	Index	12
238.4916666666667	0	n/a	143096	KeyDown	41324	1	Little	12
239.0166666666667	0	n/a	143411	KeyDown	41324	3	Middle	12
239.1050000000000	0	n/a	143464	KeyDown	41324	2	Ring	12
239.2883333333334	0	n/a	143574	KeyDown	41324	4	Index	12
239.6616666666667	0	n/a	143798	KeyDown	41324	4	Index	12
240.0800000000000	0	n/a	144049	KeyDown	41324	1	Little	12
240.2883333333334	0	n/a	144174	KeyDown	41324	3	Middle	12
240.4433333333334	0	n/a	144267	KeyDown	41324	2	Ring	12
240.6183333333333	0	n/a	144372	KeyDown	41324	4	Index	12
240.8316666666667	0	n/a	144500	KeyDown	41324	4	Index	12
240.9900000000000	0	n/a	144595	KeyDown	41324	1	Little	12
241.2733333333333	0	n/a	144765	StopPractice	41324	n/a	n/a	12
241.2750000000000	0	n/a	144766	StartRest	XXXXX	n/a	n/a	12
251.3183333333334	0	n/a	150792	StopRest	XXXXX	n/a	n/a	12
251.3200000000000	0	UPPT001	150793	StartPractice	41324	n/a	n/a	13
251.8866666666667	0	n/a	151133	KeyDown	41324	4	Index	13
251.9850000000000	0	n/a	151192	KeyDown	41324	1	Little	13
252.2050000000000	0	n/a	151324	KeyDown	41324	3	Middle	13
252.3133333333334	0	n/a	151389	KeyDown	41324	2	Ring	13
252.4233333333333	0	n/a	151455	KeyDown	41324	4	Index	13
252.5933333333334	0	n/a	151557	KeyDown	41324	4	Index	13
252.7366666666667	0	n/a	151643	KeyDown	41324	1	Little	13
252.9600000000000	0	n/a	151777	KeyDown	41324	3	Middle	13
253.0666666666667	0	n/a	151841	KeyDown	41324	2	Ring	13
253.1716666666667	0	n/a	151904	KeyDown	41324	4	Index	13
253.3450000000000	0	n/a	152008	KeyDown	41324	4	Index	13
253.4683333333334	0	n/a	152082	KeyDown	41324	1	Little	13
253.6933333333334	0	n/a	152217	KeyDown	41324	3	Middle	13
253.8116666666667	0	n/a	152288	KeyDown	41324	2	Ring	13
253.9266666666667	0	n/a	152357	KeyDown	41324	4	Index	13
254.0966666666667	0	n/a	152459	KeyDown	41324	4	Index	13
254.2166666666667	0	n/a	152531	KeyDown	41324	1	Little	13
254.4883333333333	0	n/a	152694	KeyDown	41324	3	Middle	13
254.5983333333334	0	n/a	152760	KeyDown	41324	2	Ring	13
254.6900000000000	0	n/a	152815	KeyDown	41324	4	Index	13
254.8883333333333	0	n/a	152934	KeyDown	41324	4	Index	13
254.9966666666667	0	n/a	152999	KeyDown	41324	1	Little	13
255.3316666666667	0	n/a	153200	KeyDown	41324	3	Middle	13
255.4416666666667	0	n/a	153266	KeyDown	41324	2	Ring	13
255.5666666666667	0	n/a	153341	KeyDown	41324	4	Index	13
255.9283333333333	0	n/a	153558	KeyDown	41324	4	Index	13
256.1183333333333	0	n/a	153672	KeyDown	41324	1	Little	13
256.1616666666667	0	n/a	153698	KeyDown	41324	3	Middle	13
256.3633333333333	0	n/a	153819	KeyDown	41324	1	Little	13
256.8216666666667	0	n/a	154094	KeyDown	41324	3	Middle	13
256.9300000000000	0	n/a	154159	KeyDown	41324	2	Ring	13
257.0583333333333	0	n/a	154236	KeyDown	41324	4	Index	13
257.3733333333333	0	n/a	154425	KeyDown	41324	4	Index	13
257.6283333333333	0	n/a	154578	KeyDown	41324	1	Little	13
257.8150000000000	0	n/a	154690	KeyDown	41324	3	Middle	13
257.9366666666667	0	n/a	154763	KeyDown	41324	2	Ring	13
258.0516666666667	0	n/a	154832	KeyDown	41324	4	Index	13
258.2383333333333	0	n/a	154944	KeyDown	41324	4	Index	13
258.3583333333333	0	n/a	155016	KeyDown	41324	1	Little	13
258.6233333333333	0	n/a	155175	KeyDown	41324	3	Middle	13
258.7800000000000	0	n/a	155269	KeyDown	41324	2	Ring	13
258.9166666666667	0	n/a	155351	KeyDown	41324	4	Index	13
259.0866666666667	0	n/a	155453	KeyDown	41324	4	Index	13
259.2333333333333	0	n/a	155541	KeyDown	41324	1	Little	13
259.5033333333333	0	n/a	155703	KeyDown	41324	3	Middle	13
259.5966666666667	0	n/a	155759	KeyDown	41324	2	Ring	13
260.0083333333333	0	n/a	156006	KeyDown	41324	4	Index	13
260.4166666666667	0	n/a	156251	KeyDown	41324	3	Middle	13
260.7016666666667	0	n/a	156422	KeyDown	41324	1	Little	13
261.3666666666667	0	n/a	156821	StopPractice	41324	n/a	n/a	13
261.3683333333333	0	n/a	156822	StartRest	XXXXX	n/a	n/a	13
271.4083333333334	0	n/a	162846	StopRest	XXXXX	n/a	n/a	13
271.4100000000000	0	UPPT001	162847	StartPractice	41324	n/a	n/a	14
271.9400000000000	0	n/a	163165	KeyDown	41324	4	Index	14
272.0116666666667	0	n/a	163208	KeyDown	41324	1	Little	14
272.3416666666667	0	n/a	163406	KeyDown	41324	3	Middle	14
272.4583333333334	0	n/a	163476	KeyDown	41324	2	Ring	14
272.5350000000000	0	n/a	163522	KeyDown	41324	4	Index	14
272.7066666666667	0	n/a	163625	KeyDown	41324	4	Index	14
272.8483333333334	0	n/a	163710	KeyDown	41324	1	Little	14
273.1000000000000	0	n/a	163861	KeyDown	41324	3	Middle	14
273.2150000000000	0	n/a	163930	KeyDown	41324	2	Ring	14
273.3416666666667	0	n/a	164006	KeyDown	41324	4	Index	14
273.6016666666667	0	n/a	164162	KeyDown	41324	4	Index	14
273.7683333333334	0	n/a	164262	KeyDown	41324	1	Little	14
274.0250000000000	0	n/a	164416	KeyDown	41324	3	Middle	14
274.1400000000000	0	n/a	164485	KeyDown	41324	2	Ring	14
274.2733333333334	0	n/a	164565	KeyDown	41324	4	Index	14
274.4433333333333	0	n/a	164667	KeyDown	41324	4	Index	14
274.5633333333333	0	n/a	164739	KeyDown	41324	1	Little	14
274.9333333333333	0	n/a	164961	KeyDown	41324	3	Middle	14
275.0500000000000	0	n/a	165031	KeyDown	41324	2	Ring	14
275.2000000000000	0	n/a	165121	KeyDown	41324	4	Index	14
275.4983333333333	0	n/a	165300	KeyDown	41324	4	Index	14
275.6516666666667	0	n/a	165392	KeyDown	41324	1	Little	14
276.2833333333334	0	n/a	165771	KeyDown	41324	3	Middle	14
276.3850000000000	0	n/a	165832	KeyDown	41324	2	Ring	14
276.5466666666667	0	n/a	165929	KeyDown	41324	4	Index	14
277.0716666666667	0	n/a	166244	KeyDown	41324	4	Index	14
277.1733333333333	0	n/a	166305	KeyDown	41324	1	Little	14
277.7716666666667	0	n/a	166664	KeyDown	41324	3	Middle	14
277.8683333333333	0	n/a	166722	KeyDown	41324	2	Ring	14
278.1833333333333	0	n/a	166911	KeyDown	41324	4	Index	14
278.4366666666667	0	n/a	167063	KeyDown	41324	4	Index	14
278.5466666666667	0	n/a	167129	KeyDown	41324	1	Little	14
278.8283333333334	0	n/a	167298	KeyDown	41324	3	Middle	14
278.9466666666667	0	n/a	167369	KeyDown	41324	2	Ring	14
279.1066666666667	0	n/a	167465	KeyDown	41324	4	Index	14
279.2750000000000	0	n/a	167566	KeyDown	41324	4	Index	14
279.3183333333333	0	n/a	167592	KeyDown	41324	1	Little	14
279.6566666666667	0	n/a	167795	KeyDown	41324	1	Little	14
280.1200000000000	0	n/a	168073	KeyDown	41324	3	Middle	14
280.2183333333334	0	n/a	168132	KeyDown	41324	2	Ring	14
280.4566666666667	0	n/a	168275	KeyDown	41324	4	Index	14
280.7533333333333	0	n/a	168453	KeyDown	41324	4	Index	14
280.8933333333334	0	n/a	168537	KeyDown	41324	1	Little	14
281.3250000000000	0	n/a	168796	KeyDown	41324	3	Middle	14
281.4033333333334	0	n/a	168843	KeyDown	41324	2	Ring	14
281.4566666666667	0	n/a	168875	StopPractice	41324	n/a	n/a	14
281.4583333333334	0	n/a	168876	StartRest	XXXXX	n/a	n/a	14
291.5000000000000	0	n/a	174901	StopRest	XXXXX	n/a	n/a	14
291.5016666666667	0	UPPT001	174902	StartPractice	41324	n/a	n/a	15
291.9800000000000	0	n/a	175189	KeyDown	41324	4	Index	15
292.0950000000000	0	n/a	175258	KeyDown	41324	1	Little	15
292.3250000000000	0	n/a	175396	KeyDown	41324	3	Middle	15
292.4533333333334	0	n/a	175473	KeyDown	41324	2	Ring	15
292.5700000000000	0	n/a	175543	KeyDown	41324	4	Index	15
292.7700000000000	0	n/a	175663	KeyDown	41324	4	Index	15
292.9600000000000	0	n/a	175777	KeyDown	41324	1	Little	15
293.3700000000000	0	n/a	176023	KeyDown	41324	3	Middle	15
293.4900000000000	0	n/a	176095	KeyDown	41324	2	Ring	15
293.6600000000000	0	n/a	176197	KeyDown	41324	4	Index	15
293.9033333333334	0	n/a	176343	KeyDown	41324	4	Index	15
294.0983333333334	0	n/a	176460	KeyDown	41324	1	Little	15
294.4116666666667	0	n/a	176648	KeyDown	41324	3	Middle	15
294.5750000000000	0	n/a	176746	KeyDown	41324	2	Ring	15
294.7016666666667	0	n/a	176822	KeyDown	41324	4	Index	15
294.9800000000000	0	n/a	176989	KeyDown	41324	4	Index	15
295.2083333333334	0	n/a	177126	KeyDown	41324	1	Little	15
295.4883333333333	0	n/a	177294	KeyDown	41324	3	Middle	15
295.6583333333334	0	n/a	177396	KeyDown	41324	2	Ring	15
295.7950000000000	0	n/a	177478	KeyDown	41324	4	Index	15
296.0400000000000	0	n/a	177625	KeyDown	41324	4	Index	15
296.2483333333333	0	n/a	177750	KeyDown	41324	1	Little	15
296.6083333333333	0	n/a	177966	KeyDown	41324	3	Middle	15
296.7266666666667	0	n/a	178037	KeyDown	41324	2	Ring	15
296.8900000000000	0	n/a	178135	KeyDown	41324	4	Index	15
297.1483333333334	0	n/a	178290	KeyDown	41324	4	Index	15
297.3566666666667	0	n/a	178415	KeyDown	41324	1	Little	15
297.5800000000000	0	n/a	178549	KeyDown	41324	3	Middle	15
297.7033333333334	0	n/a	178623	KeyDown	41324	2	Ring	15
297.9050000000000	0	n/a	178744	KeyDown	41324	4	Index	15
298.1100000000000	0	n/a	178867	KeyDown	41324	4	Index	15
298.2833333333334	0	n/a	178971	KeyDown	41324	1	Little	15
298.7450000000000	0	n/a	179248	KeyDown	41324	3	Middle	15
298.8583333333333	0	n/a	179316	KeyDown	41324	2	Ring	15
299.0533333333333	0	n/a	179433	KeyDown	41324	4	Index	15
299.3266666666667	0	n/a	179597	KeyDown	41324	4	Index	15
299.4750000000000	0	n/a	179686	KeyDown	41324	1	Little	15
300.0033333333333	0	n/a	180003	KeyDown	41324	4	Index	15
300.1416666666667	0	n/a	180086	KeyDown	41324	2	Ring	15
300.1883333333333	0	n/a	180114	KeyDown	41324	3	Middle	15
300.3100000000000	0	n/a	180187	KeyDown	41324	2	Ring	15
300.6100000000000	0	n/a	180367	KeyDown	41324	4	Index	15
301.2883333333334	0	n/a	180774	KeyDown	41324	4	Index	15
301.3950000000000	0	n/a	180838	KeyDown	41324	1	Little	15
301.5483333333333	0	n/a	180930	StopPractice	41324	n/a	n/a	15
301.5500000000000	0	n/a	180931	StartRest	XXXXX	n/a	n/a	15
311.5966666666667	0	n/a	186959	StopRest	XXXXX	n/a	n/a	15
311.5983333333334	0	UPPT001	186960	StartPractice	41324	n/a	n/a	16
312.0100000000000	0	n/a	187207	KeyDown	41324	4	Index	16
312.1450000000000	0	n/a	187288	KeyDown	41324	1	Little	16
312.3566666666667	0	n/a	187415	KeyDown	41324	3	Middle	16
312.4833333333333	0	n/a	187491	KeyDown	41324	2	Ring	16
312.5766666666667	0	n/a	187547	KeyDown	41324	4	Index	16
312.7533333333333	0	n/a	187653	KeyDown	41324	4	Index	16
312.9300000000000	0	n/a	187759	KeyDown	41324	1	Little	16
313.1216666666667	0	n/a	187874	KeyDown	41324	3	Middle	16
313.2216666666667	0	n/a	187934	KeyDown	41324	2	Ring	16
313.4050000000000	0	n/a	188044	KeyDown	41324	4	Index	16
313.6150000000000	0	n/a	188170	KeyDown	41324	4	Index	16
313.7566666666667	0	n/a	188255	KeyDown	41324	1	Little	16
313.9750000000000	0	n/a	188386	KeyDown	41324	3	Middle	16
314.0766666666667	0	n/a	188447	KeyDown	41324	2	Ring	16
314.2433333333333	0	n/a	188547	KeyDown	41324	4	Index	16
314.4566666666667	0	n/a	188675	KeyDown	41324	4	Index	16
314.6316666666667	0	n/a	188780	KeyDown	41324	1	Little	16
315.0733333333334	0	n/a	189045	KeyDown	41324	3	Middle	16
315.1916666666667	0	n/a	189116	KeyDown	41324	2	Ring	16
315.3450000000000	0	n/a	189208	KeyDown	41324	4	Index	16
315.5650000000000	0	n/a	189340	KeyDown	41324	4	Index	16
315.7833333333334	0	n/a	189471	KeyDown	41324	1	Little	16
316.0150000000000	0	n/a	189610	KeyDown	41324	3	Middle	16
316.1433333333334	0	n/a	189687	KeyDown	41324	2	Ring	16
316.3033333333333	0	n/a	189783	KeyDown	41324	4	Index	16
316.5216666666667	0	n/a	189914	KeyDown	41324	4	Index	16
316.6716666666667	0	n/a	190004	KeyDown	41324	1	Little	16
317.0850000000000	0	n/a	190252	KeyDown	41324	3	Middle	16
317.2116666666667	0	n/a	190328	KeyDown	41324	2	Ring	16
317.4650000000000	0	n/a	190480	KeyDown	41324	4	Index	16
317.6833333333333	0	n/a	190611	KeyDown	41324	4	Index	16
318.0416666666667	0	n/a	190826	KeyDown	41324	1	Little	16
318.3816666666667	0	n/a	191030	KeyDown	41324	3	Middle	16
318.4850000000000	0	n/a	191092	KeyDown	41324	2	Ring	16
318.6550000000000	0	n/a	191194	KeyDown	41324	4	Index	16
318.9983333333333	0	n/a	191400	KeyDown	41324	4	Index	16
319.1916666666667	0	n/a	191516	KeyDown	41324	1	Little	16
319.5783333333334	0	n/a	191748	KeyDown	41324	3	Middle	16
319.6666666666667	0	n/a	191801	KeyDown	41324	2	Ring	16
319.8083333333333	0	n/a	191886	KeyDown	41324	4	Index	16
320.7866666666667	0	n/a	192473	KeyDown	41324	4	Index	16
321.0366666666667	0	n/a	192623	KeyDown	41324	1	Little	16
321.6450000000000	0	n/a	192988	StopPractice	41324	n/a	n/a	16
321.6466666666667	0	n/a	192989	StartRest	XXXXX	n/a	n/a	16
331.6833333333333	0	n/a	199011	StopRest	XXXXX	n/a	n/a	16
331.6850000000000	0	UPPT001	199012	StartPractice	41324	n/a	n/a	17
332.2683333333334	0	n/a	199362	KeyDown	41324	4	Index	17
332.3816666666667	0	n/a	199430	KeyDown	41324	1	Little	17
332.6183333333333	0	n/a	199572	KeyDown	41324	3	Middle	17
332.7300000000000	0	n/a	199639	KeyDown	41324	2	Ring	17
332.8416666666667	0	n/a	199706	KeyDown	41324	4	Index	17
332.9933333333333	0	n/a	199797	KeyDown	41324	4	Index	17
333.1833333333333	0	n/a	199911	KeyDown	41324	1	Little	17
333.3800000000000	0	n/a	200029	KeyDown	41324	3	Middle	17
333.4983333333333	0	n/a	200100	KeyDown	41324	2	Ring	17
333.6016666666667	0	n/a	200162	KeyDown	41324	4	Index	17
333.8450000000000	0	n/a	200308	KeyDown	41324	4	Index	17
334.0533333333333	0	n/a	200433	KeyDown	41324	1	Little	17
334.2916666666667	0	n/a	200576	KeyDown	41324	3	Middle	17
334.4016666666667	0	n/a	200642	KeyDown	41324	2	Ring	17
334.6266666666667	0	n/a	200777	KeyDown	41324	4	Index	17
334.8766666666667	0	n/a	200927	KeyDown	41324	4	Index	17
335.1433333333334	0	n/a	201087	KeyDown	41324	1	Little	17
335.6016666666667	0	n/a	201362	KeyDown	41324	3	Middle	17
335.7666666666667	0	n/a	201461	KeyDown	41324	2	Ring	17
335.9433333333333	0	n/a	201567	KeyDown	41324	4	Index	17
336.1483333333334	0	n/a	201690	KeyDown	41324	4	Index	17
336.3416666666667	0	n/a	201806	KeyDown	41324	1	Little	17
336.5850000000000	0	n/a	201952	KeyDown	41324	3	Middle	17
336.7533333333333	0	n/a	202053	KeyDown	41324	2	Ring	17
336.9033333333334	0	n/a	202143	KeyDown	41324	4	Index	17
337.1183333333333	0	n/a	202272	KeyDown	41324	4	Index	17
337.2700000000000	0	n/a	202363	KeyDown	41324	1	Little	17
337.5016666666667	0	n/a	202502	KeyDown	41324	3	Middle	17
337.6933333333333	0	n/a	202617	KeyDown	41324	2	Ring	17
337.8316666666667	0	n/a	202700	KeyDown	41324	4	Index	17
338.0583333333333	0	n/a	202836	KeyDown	41324	4	Index	17
338.3000000000000	0	n/a	202981	KeyDown	41324	1	Little	17
338.5950000000000	0	n/a	203158	KeyDown	41324	3	Middle	17
338.7633333333334	0	n/a	203259	KeyDown	41324	4	Index	17
338.8583333333333	0	n/a	203316	KeyDown	41324	2	Ring	17
338.8850000000000	0	n/a	203332	KeyDown	41324	3	Middle	17
339.1516666666667	0	n/a	203492	KeyDown	41324	4	Index	17
339.8350000000000	0	n/a	203902	KeyDown	41324	1	Little	17
340.0266666666667	0	n/a	204017	KeyDown	41324	3	Middle	17
340.1216666666667	0	n/a	204074	KeyDown	41324	2	Ring	17
340.3216666666667	0	n/a	204194	KeyDown	41324	4	Index	17
340.5300000000000	0	n/a	204319	KeyDown	41324	4	Index	17
340.6883333333333	0	n/a	204414	KeyDown	41324	1	Little	17
341.0200000000000	0	n/a	204613	KeyDown	41324	3	Middle	17
341.1316666666667	0	n/a	204680	KeyDown	41324	2	Ring	17
341.2833333333334	0	n/a	204771	KeyDown	41324	4	Index	17
341.4933333333333	0	n/a	204897	KeyDown	41324	4	Index	17
341.6650000000000	0	n/a	205000	KeyDown	41324	1	Little	17
341.7316666666667	0	n/a	205040	StopPractice	41324	n/a	n/a	17
341.7333333333333	0	n/a	205041	StartRest	XXXXX	n/a	n/a	17
351.7750000000000	0	n/a	211066	StopRest	XXXXX	n/a	n/a	17
351.7766666666667	0	UPPT001	211067	StartPractice	41324	n/a	n/a	18
352.1616666666667	0	n/a	211298	KeyDown	41324	4	Index	18
352.2283333333334	0	n/a	211338	KeyDown	41324	1	Little	18
352.4800000000000	0	n/a	211489	KeyDown	41324	3	Middle	18
352.5900000000000	0	n/a	211555	KeyDown	41324	2	Ring	18
352.6933333333333	0	n/a	211617	KeyDown	41324	4	Index	18
352.8833333333334	0	n/a	211731	KeyDown	41324	4	Index	18
353.0350000000000	0	n/a	211822	KeyDown	41324	1	Little	18
353.2550000000000	0	n/a	211954	KeyDown	41324	3	Middle	18
353.3533333333334	0	n/a	212013	KeyDown	41324	2	Ring	18
353.4833333333333	0	n/a	212091	KeyDown	41324	4	Index	18
353.7183333333334	0	n/a	212232	KeyDown	41324	4	Index	18
353.8816666666667	0	n/a	212330	KeyDown	41324	1	Little	18
354.1450000000000	0	n/a	212488	KeyDown	41324	3	Middle	18
354.2650000000000	0	n/a	212560	KeyDown	41324	2	Ring	18
354.4650000000000	0	n/a	212680	KeyDown	41324	4	Index	18
354.6833333333333	0	n/a	212811	KeyDown	41324	4	Index	18
354.8683333333333	0	n/a	212922	KeyDown	41324	1	Little	18
355.1083333333333	0	n/a	213066	KeyDown	41324	3	Middle	18
355.2250000000000	0	n/a	213136	KeyDown	41324	2	Ring	18
355.3633333333333	0	n/a	213219	KeyDown	41324	4	Index	18
355.5600000000000	0	n/a	213337	KeyDown	41324	4	Index	18
355.7133333333334	0	n/a	213429	KeyDown	41324	1	Little	18
356.1633333333334	0	n/a	213699	KeyDown	41324	3	Middle	18
356.3200000000001	0	n/a	213793	KeyDown	41324	2	Ring	18
356.5200000000000	0	n/a	213913	KeyDown	41324	4	Index	18
356.7366666666667	0	n/a	214043	KeyDown	41324	4	Index	18
356.9266666666667	0	n/a	214157	KeyDown	41324	1	Little	18
357.3733333333333	0	n/a	214425	KeyDown	41324	3	Middle	18
357.4700000000000	0	n/a	214483	KeyDown	41324	2	Ring	18
357.5900000000000	0	n/a	214555	KeyDown	41324	4	Index	18
357.8883333333334	0	n/a	214734	KeyDown	41324	1	Little	18
359.2783333333334	0	n/a	215568	KeyDown	41324	4	Index	18
360.1883333333333	0	n/a	216114	KeyDown	41324	1	Little	18
360.5233333333334	0	n/a	216315	KeyDown	41324	3	Middle	18
360.6100000000000	0	n/a	216367	KeyDown	41324	2	Ring	18
360.7483333333333	0	n/a	216450	KeyDown	41324	4	Index	18
360.9450000000001	0	n/a	216568	KeyDown	41324	4	Index	18
361.0566666666667	0	n/a	216635	KeyDown	41324	1	Little	18
361.3083333333333	0	n/a	216786	KeyDown	41324	3	Middle	18
361.6433333333334	0	n/a	216987	KeyDown	41324	2	Ring	18
361.8233333333334	0	n/a	217095	StopPractice	41324	n/a	n/a	18
361.8250000000000	0	n/a	217096	StartRest	XXXXX	n/a	n/a	18
371.8666666666667	0	n/a	223121	StopRest	XXXXX	n/a	n/a	18
371.8683333333333	0	UPPT001	223122	StartPractice	41324	n/a	n/a	19
372.4600000000000	0	n/a	223477	KeyDown	41324	4	Index	19
372.5300000000000	0	n/a	223519	KeyDown	41324	1	Little	19
372.7700000000000	0	n/a	223663	KeyDown	41324	3	Middle	19
372.8716666666667	0	n/a	223724	KeyDown	41324	2	Ring	19
372.9850000000000	0	n/a	223792	KeyDown	41324	4	Index	19
373.1666666666667	0	n/a	223901	KeyDown	41324	4	Index	19
373.3350000000000	0	n/a	224002	KeyDown	41324	1	Little	19
373.6416666666667	0	n/a	224186	KeyDown	41324	3	Middle	19
373.7300000000000	0	n/a	224239	KeyDown	41324	2	Ring	19
373.9050000000000	0	n/a	224344	KeyDown	41324	4	Index	19
374.1233333333333	0	n/a	224475	KeyDown	41324	4	Index	19
374.3033333333333	0	n/a	224583	KeyDown	41324	1	Little	19
374.5816666666667	0	n/a	224750	KeyDown	41324	3	Middle	19
374.6750000000000	0	n/a	224806	KeyDown	41324	2	Ring	19
374.8300000000000	0	n/a	224899	KeyDown	41324	4	Index	19
375.0650000000000	0	n/a	225040	KeyDown	41324	4	Index	19
375.2216666666667	0	n/a	225134	KeyDown	41324	1	Little	19
375.5700000000001	0	n/a	225343	KeyDown	41324	3	Middle	19
375.6716666666667	0	n/a	225404	KeyDown	41324	2	Ring	19
375.8800000000001	0	n/a	225529	KeyDown	41324	4	Index	19
376.0816666666667	0	n/a	225650	KeyDown	41324	4	Index	19
376.2050000000000	0	n/a	225724	KeyDown	41324	1	Little	19
376.6750000000000	0	n/a	226006	KeyDown	41324	3	Middle	19
376.7366666666667	0	n/a	226043	KeyDown	41324	2	Ring	19
377.0316666666667	0	n/a	226220	KeyDown	41324	4	Index	19
377.3266666666667	0	n/a	226397	KeyDown	41324	4	Index	19
377.4916666666667	0	n/a	226496	KeyDown	41324	1	Little	19
377.9066666666667	0	n/a	226745	KeyDown	41324	3	Middle	19
377.9933333333333	0	n/a	226797	KeyDown	41324	2	Ring	19
378.1816666666667	0	n/a	226910	KeyDown	41324	4	Index	19
378.5550000000000	0	n/a	227134	KeyDown	41324	4	Index	19
378.7166666666667	0	n/a	227231	KeyDown	41324	1	Little	19
379.6383333333334	0	n/a	227784	KeyDown	41324	4	Index	19
379.7016666666667	0	n/a	227822	KeyDown	41324	3	Middle	19
379.9166666666667	0	n/a	227951	KeyDown	41324	2	Ring	19
381.3250000000000	0	n/a	228796	KeyDown	41324	4	Index	19
381.4966666666667	0	n/a	228899	KeyDown	41324	1	Little	19
381.8500000000000	0	n/a	229111	KeyDown	41324	2	Ring	19
381.9150000000000	0	n/a	229150	StopPractice	41324	n/a	n/a	19
381.9166666666667	0	n/a	229151	StartRest	XXXXX	n/a	n/a	19
391.9566666666667	0	n/a	235175	StopRest	XXXXX	n/a	n/a	19
391.9583333333334	0	UPPT001	235176	StartPractice	41324	n/a	n/a	20
392.4566666666667	0	n/a	235475	KeyDown	41324	4	Index	20
392.5500000000000	0	n/a	235531	KeyDown	41324	1	Little	20
392.7966666666667	0	n/a	235679	KeyDown	41324	3	Middle	20
392.9016666666667	0	n/a	235742	KeyDown	41324	2	Ring	20
393.0216666666667	0	n/a	235814	KeyDown	41324	4	Index	20
393.2016666666667	0	n/a	235922	KeyDown	41324	4	Index	20
393.3666666666667	0	n/a	236021	KeyDown	41324	1	Little	20
393.6033333333334	0	n/a	236163	KeyDown	41324	3	Middle	20
393.7016666666667	0	n/a	236222	KeyDown	41324	2	Ring	20
393.9116666666667	0	n/a	236348	KeyDown	41324	4	Index	20
394.0983333333334	0	n/a	236460	KeyDown	41324	4	Index	20
394.2333333333333	0	n/a	236541	KeyDown	41324	1	Little	20
394.5216666666667	0	n/a	236714	KeyDown	41324	3	Middle	20
394.6200000000000	0	n/a	236773	KeyDown	41324	2	Ring	20
394.7700000000000	0	n/a	236863	KeyDown	41324	4	Index	20
394.9916666666667	0	n/a	236996	KeyDown	41324	4	Index	20
395.1266666666667	0	n/a	237077	KeyDown	41324	1	Little	20
395.3700000000000	0	n/a	237223	KeyDown	41324	3	Middle	20
395.4783333333334	0	n/a	237288	KeyDown	41324	2	Ring	20
395.6383333333334	0	n/a	237384	KeyDown	41324	4	Index	20
395.8333333333334	0	n/a	237501	KeyDown	41324	4	Index	20
395.9716666666667	0	n/a	237584	KeyDown	41324	1	Little	20
396.3850000000000	0	n/a	237832	KeyDown	41324	3	Middle	20
396.4850000000000	0	n/a	237892	KeyDown	41324	2	Ring	20
396.6966666666667	0	n/a	238019	KeyDown	41324	4	Index	20
397.0166666666667	0	n/a	238211	KeyDown	41324	1	Little	20
398.0866666666667	0	n/a	238853	KeyDown	41324	3	Middle	20
398.1850000000000	0	n/a	238912	KeyDown	41324	2	Ring	20
398.4066666666667	0	n/a	239045	KeyDown	41324	4	Index	20
398.6266666666667	0	n/a	239177	KeyDown	41324	4	Index	20
398.8400000000000	0	n/a	239305	KeyDown	41324	1	Little	20
399.3216666666667	0	n/a	239594	KeyDown	41324	3	Middle	20
399.4283333333333	0	n/a	239658	KeyDown	41324	2	Ring	20
399.6366666666667	0	n/a	239783	KeyDown	41324	4	Index	20
399.8750000000000	0	n/a	239926	KeyDown	41324	4	Index	20
400.0333333333334	0	n/a	240021	KeyDown	41324	1	Little	20
400.2800000000000	0	n/a	240169	KeyDown	41324	3	Middle	20
400.4366666666667	0	n/a	240263	KeyDown	41324	2	Ring	20
401.1300000000001	0	n/a	240679	KeyDown	41324	4	Index	20
401.3316666666667	0	n/a	240800	KeyDown	41324	4	Index	20
401.4766666666667	0	n/a	240887	KeyDown	41324	1	Little	20
401.8883333333334	0	n/a	241134	KeyDown	41324	3	Middle	20
402.0050000000001	0	n/a	241204	StopPractice	41324	n/a	n/a	20
402.0066666666667	0	n/a	241205	StartRest	XXXXX	n/a	n/a	20
412.0500000000000	0	n/a	247231	StopRest	XXXXX	n/a	n/a	20
412.0516666666667	0	UPPT001	247232	StartPractice	41324	n/a	n/a	21
412.5300000000000	0	n/a	247519	KeyDown	41324	4	Index	21
412.6483333333334	0	n/a	247590	KeyDown	41324	1	Little	21
412.8983333333334	0	n/a	247740	KeyDown	41324	3	Middle	21
413.0033333333334	0	n/a	247803	KeyDown	41324	2	Ring	21
413.2216666666667	0	n/a	247934	KeyDown	41324	4	Index	21
413.4283333333333	0	n/a	248058	KeyDown	41324	4	Index	21
413.5983333333334	0	n/a	248160	KeyDown	41324	1	Little	21
413.9033333333334	0	n/a	248343	KeyDown	41324	3	Middle	21
414.0066666666667	0	n/a	248405	KeyDown	41324	2	Ring	21
414.1566666666667	0	n/a	248495	KeyDown	41324	4	Index	21
414.4983333333333	0	n/a	248700	KeyDown	41324	4	Index	21
414.6916666666667	0	n/a	248816	KeyDown	41324	1	Little	21
414.9500000000000	0	n/a	248971	KeyDown	41324	3	Middle	21
415.0783333333334	0	n/a	249048	KeyDown	41324	2	Ring	21
415.2400000000000	0	n/a	249145	KeyDown	41324	4	Index	21
415.4633333333334	0	n/a	249279	KeyDown	41324	4	Index	21
415.6083333333333	0	n/a	249366	KeyDown	41324	1	Little	21
416.0100000000000	0	n/a	249607	KeyDown	41324	3	Middle	21
416.1433333333334	0	n/a	249687	KeyDown	41324	2	Ring	21
416.3950000000000	0	n/a	249838	KeyDown	41324	4	Index	21
416.6050000000000	0	n/a	249964	KeyDown	41324	4	Index	21
416.8150000000001	0	n/a	250090	KeyDown	41324	1	Little	21
417.4633333333334	0	n/a	250479	KeyDown	41324	3	Middle	21
417.5633333333333	0	n/a	250539	KeyDown	41324	2	Ring	21
417.8333333333334	0	n/a	250701	KeyDown	41324	4	Index	21
418.1400000000000	0	n/a	250885	KeyDown	41324	1	Little	21
418.3666666666667	0	n/a	251021	KeyDown	41324	1	Little	21
419.1000000000000	0	n/a	251461	KeyDown	41324	4	Index	21
419.2233333333334	0	n/a	251535	KeyDown	41324	1	Little	21
419.3183333333334	0	n/a	251592	KeyDown	41324	3	Middle	21
419.4683333333334	0	n/a	251682	KeyDown	41324	2	Ring	21
419.8866666666667	0	n/a	251933	KeyDown	41324	4	Index	21
420.6150000000000	0	n/a	252370	KeyDown	41324	1	Little	21
420.8800000000001	0	n/a	252529	KeyDown	41324	3	Middle	21
420.9916666666667	0	n/a	252596	KeyDown	41324	2	Ring	21
421.1333333333334	0	n/a	252681	KeyDown	41324	4	Index	21
421.3750000000000	0	n/a	252826	KeyDown	41324	4	Index	21
421.5483333333333	0	n/a	252930	KeyDown	41324	1	Little	21
421.7800000000000	0	n/a	253069	KeyDown	41324	3	Middle	21
421.9050000000000	0	n/a	253144	KeyDown	41324	2	Ring	21
422.0733333333334	0	n/a	253245	KeyDown	41324	4	Index	21
422.0983333333334	0	n/a	253260	StopPractice	41324	n/a	n/a	21
422.1000000000000	0	n/a	253261	StartRest	XXXXX	n/a	n/a	21
432.1233333333333	0	n/a	259275	StopRest	XXXXX	n/a	n/a	21
432.1250000000000	0	UPPT001	259276	StartPractice	41324	n/a	n/a	22
432.5383333333334	0	n/a	259524	KeyDown	41324	4	Index	22
432.6083333333333	0	n/a	259566	KeyDown	41324	1	Little	22
432.8416666666667	0	n/a	259706	KeyDown	41324	3	Middle	22
432.9450000000001	0	n/a	259768	KeyDown	41324	2	Ring	22
433.1000000000000	0	n/a	259861	KeyDown	41324	4	Index	22
433.3316666666667	0	n/a	260000	KeyDown	41324	4	Index	22
433.5266666666667	0	n/a	260117	KeyDown	41324	1	Little	22
433.7616666666667	0	n/a	260258	KeyDown	41324	3	Middle	22
433.8583333333333	0	n/a	260316	KeyDown	41324	2	Ring	22
434.0666666666667	0	n/a	260441	KeyDown	41324	4	Index	22
434.2583333333334	0	n/a	260556	KeyDown	41324	4	Index	22
434.4366666666667	0	n/a	260663	KeyDown	41324	1	Little	22
434.6616666666667	0	n/a	260798	KeyDown	41324	3	Middle	22
434.7466666666667	0	n/a	260849	KeyDown	41324	2	Ring	22
434.9333333333333	0	n/a	260961	KeyDown	41324	4	Index	22
435.1383333333334	0	n/a	261084	KeyDown	41324	4	Index	22
435.2833333333334	0	n/a	261171	KeyDown	41324	1	Little	22
435.6383333333334	0	n/a	261384	KeyDown	41324	3	Middle	22
435.7833333333334	0	n/a	261471	KeyDown	41324	2	Ring	22
435.9816666666667	0	n/a	261590	KeyDown	41324	4	Index	22
436.1783333333333	0	n/a	261708	KeyDown	41324	4	Index	22
436.3383333333334	0	n/a	261804	KeyDown	41324	1	Little	22
436.5816666666667	0	n/a	261950	KeyDown	41324	3	Middle	22
436.7083333333334	0	n/a	262026	KeyDown	41324	2	Ring	22
436.8983333333334	0	n/a	262140	KeyDown	41324	4	Index	22
437.0983333333334	0	n/a	262260	KeyDown	41324	4	Index	22
437.2216666666667	0	n/a	262334	KeyDown	41324	1	Little	22
437.5700000000001	0	n/a	262543	KeyDown	41324	3	Middle	22
437.6433333333334	0	n/a	262587	KeyDown	41324	2	Ring	22
437.8033333333333	0	n/a	262683	KeyDown	41324	2	Ring	22
437.9483333333334	0	n/a	262770	KeyDown	41324	4	Index	22
438.1383333333334	0	n/a	262884	KeyDown	41324	4	Index	22
438.2816666666667	0	n/a	262970	KeyDown	41324	1	Little	22
439.0266666666667	0	n/a	263417	KeyDown	41324	3	Middle	22
439.1350000000000	0	n/a	263482	KeyDown	41324	2	Ring	22
439.2833333333334	0	n/a	263571	KeyDown	41324	4	Index	22
439.5083333333334	0	n/a	263706	KeyDown	41324	4	Index	22
439.7516666666667	0	n/a	263852	KeyDown	41324	1	Little	22
440.3766666666667	0	n/a	264227	KeyDown	41324	3	Middle	22
440.5183333333334	0	n/a	264312	KeyDown	41324	2	Ring	22
440.9416666666667	0	n/a	264566	KeyDown	41324	4	Index	22
441.4366666666667	0	n/a	264863	KeyDown	41324	4	Index	22
441.5700000000001	0	n/a	264943	KeyDown	41324	1	Little	22
441.8450000000000	0	n/a	265108	KeyDown	41324	3	Middle	22
441.9500000000000	0	n/a	265171	KeyDown	41324	2	Ring	22
442.1716666666667	0	n/a	265304	StopPractice	41324	n/a	n/a	22
442.1733333333333	0	n/a	265305	StartRest	XXXXX	n/a	n/a	22
452.2200000000000	0	n/a	271333	StopRest	XXXXX	n/a	n/a	22
452.2216666666667	0	UPPT001	271334	StartPractice	41324	n/a	n/a	23
452.6583333333334	0	n/a	271596	KeyDown	41324	4	Index	23
452.7616666666667	0	n/a	271658	KeyDown	41324	1	Little	23
452.9933333333333	0	n/a	271797	KeyDown	41324	3	Middle	23
453.1100000000000	0	n/a	271867	KeyDown	41324	2	Ring	23
453.3483333333334	0	n/a	272010	KeyDown	41324	4	Index	23
453.5450000000000	0	n/a	272128	KeyDown	41324	4	Index	23
453.9633333333334	0	n/a	272379	KeyDown	41324	1	Little	23
454.1750000000000	0	n/a	272506	KeyDown	41324	3	Middle	23
454.2750000000000	0	n/a	272566	KeyDown	41324	2	Ring	23
454.4900000000000	0	n/a	272695	KeyDown	41324	4	Index	23
454.6816666666667	0	n/a	272810	KeyDown	41324	4	Index	23
454.8533333333334	0	n/a	272913	KeyDown	41324	1	Little	23
455.1183333333333	0	n/a	273072	KeyDown	41324	3	Middle	23
455.2233333333334	0	n/a	273135	KeyDown	41324	2	Ring	23
455.4583333333334	0	n/a	273276	KeyDown	41324	4	Index	23
455.6500000000000	0	n/a	273391	KeyDown	41324	4	Index	23
455.7866666666667	0	n/a	273473	KeyDown	41324	1	Little	23
456.0633333333334	0	n/a	273639	KeyDown	41324	3	Middle	23
456.1766666666667	0	n/a	273707	KeyDown	41324	2	Ring	23
456.3400000000000	0	n/a	273805	KeyDown	41324	4	Index	23
456.5200000000000	0	n/a	273913	KeyDown	41324	4	Index	23
456.6933333333334	0	n/a	274017	KeyDown	41324	1	Little	23
456.9933333333333	0	n/a	274197	KeyDown	41324	3	Middle	23
457.1100000000000	0	n/a	274267	KeyDown	41324	2	Ring	23
457.3100000000000	0	n/a	274387	KeyDown	41324	4	Index	23
457.4800000000000	0	n/a	274489	KeyDown	41324	4	Index	23
457.6166666666667	0	n/a	274571	KeyDown	41324	1	Little	23
457.8750000000001	0	n/a	274726	KeyDown	41324	3	Middle	23
458.0050000000001	0	n/a	274804	KeyDown	41324	2	Ring	23
458.2150000000000	0	n/a	274930	KeyDown	41324	4	Index	23
458.4683333333334	0	n/a	275082	KeyDown	41324	4	Index	23
458.7100000000000	0	n/a	275227	KeyDown	41324	1	Little	23
459.2100000000000	0	n/a	275527	KeyDown	41324	2	Ring	23
459.3583333333333	0	n/a	275616	KeyDown	41324	3	Middle	23
459.5033333333334	0	n/a	275703	KeyDown	41324	2	Ring	23
459.7900000000000	0	n/a	275875	KeyDown	41324	4	Index	23
460.9216666666667	0	n/a	276554	KeyDown	41324	4	Index	23
461.4833333333333	0	n/a	276891	KeyDown	41324	1	Little	23
461.7133333333334	0	n/a	277029	KeyDown	41324	3	Middle	23
461.8850000000000	0	n/a	277132	KeyDown	41324	2	Ring	23
462.0450000000000	0	n/a	277228	KeyDown	41324	4	Index	23
462.2683333333334	0	n/a	277362	StopPractice	41324	n/a	n/a	23
462.2700000000000	0	n/a	277363	StartRest	XXXXX	n/a	n/a	23
472.3066666666667	0	n/a	283385	StopRest	XXXXX	n/a	n/a	23
472.3083333333333	0	UPPT001	283386	StartPractice	41324	n/a	n/a	24
472.8616666666667	0	n/a	283718	KeyDown	41324	4	Index	24
472.9466666666667	0	n/a	283769	KeyDown	41324	1	Little	24
473.2116666666667	0	n/a	283928	KeyDown	41324	3	Middle	24
473.3150000000001	0	n/a	283990	KeyDown	41324	2	Ring	24
473.5133333333334	0	n/a	284109	KeyDown	41324	4	Index	24
473.7183333333334	0	n/a	284232	KeyDown	41324	4	Index	24
473.8800000000001	0	n/a	284329	KeyDown	41324	1	Little	24
474.0916666666667	0	n/a	284456	KeyDown	41324	3	Middle	24
474.2116666666667	0	n/a	284528	KeyDown	41324	2	Ring	24
474.4133333333334	0	n/a	284649	KeyDown	41324	4	Index	24
474.6133333333333	0	n/a	284769	KeyDown	41324	4	Index	24
474.7916666666667	0	n/a	284876	KeyDown	41324	1	Little	24
475.4200000000000	0	n/a	285253	KeyDown	41324	3	Middle	24
475.4916666666667	0	n/a	285296	KeyDown	41324	2	Ring	24
475.6716666666667	0	n/a	285404	KeyDown	41324	4	Index	24
475.9000000000000	0	n/a	285541	KeyDown	41324	4	Index	24
476.0633333333334	0	n/a	285639	KeyDown	41324	1	Little	24
476.6416666666667	0	n/a	285986	KeyDown	41324	3	Middle	24
476.7533333333334	0	n/a	286053	KeyDown	41324	2	Ring	24
477.0766666666667	0	n/a	286247	KeyDown	41324	4	Index	24
477.4433333333334	0	n/a	286467	KeyDown	41324	4	Index	24
477.6650000000000	0	n/a	286600	KeyDown	41324	1	Little	24
478.4000000000000	0	n/a	287041	KeyDown	41324	3	Middle	24
478.4850000000000	0	n/a	287092	KeyDown	41324	2	Ring	24
478.6683333333334	0	n/a	287202	KeyDown	41324	4	Index	24
478.9850000000000	0	n/a	287392	KeyDown	41324	4	Index	24
479.1266666666667	0	n/a	287477	KeyDown	41324	1	Little	24
479.6616666666667	0	n/a	287798	KeyDown	41324	3	Middle	24
479.7533333333334	0	n/a	287853	KeyDown	41324	2	Ring	24
479.9866666666667	0	n/a	287993	KeyDown	41324	4	Index	24
480.1700000000000	0	n/a	288103	KeyDown	41324	4	Index	24
480.3350000000000	0	n/a	288202	KeyDown	41324	1	Little	24
481.0550000000000	0	n/a	288634	KeyDown	41324	4	Index	24
481.3950000000000	0	n/a	288838	KeyDown	41324	3	Middle	24
481.4883333333333	0	n/a	288894	KeyDown	41324	2	Ring	24
481.8783333333334	0	n/a	289128	KeyDown	41324	1	Little	24
482.0416666666667	0	n/a	289226	KeyDown	41324	3	Middle	24
482.1500000000000	0	n/a	289291	KeyDown	41324	2	Ring	24
482.3550000000000	0	n/a	289414	StopPractice	41324	n/a	n/a	24
482.3566666666667	0	n/a	289415	StartRest	XXXXX	n/a	n/a	24
492.3983333333334	0	n/a	295440	StopRest	XXXXX	n/a	n/a	24
492.4000000000000	0	UPPT001	295441	StartPractice	41324	n/a	n/a	25
493.5450000000000	0	n/a	296128	KeyDown	41324	4	Index	25
493.6866666666667	0	n/a	296213	KeyDown	41324	1	Little	25
493.9533333333334	0	n/a	296373	KeyDown	41324	3	Middle	25
494.0116666666667	0	n/a	296408	KeyDown	41324	2	Ring	25
494.2916666666667	0	n/a	296576	KeyDown	41324	4	Index	25
494.4683333333334	0	n/a	296682	KeyDown	41324	4	Index	25
494.7133333333334	0	n/a	296829	KeyDown	41324	1	Little	25
494.9600000000000	0	n/a	296977	KeyDown	41324	3	Middle	25
495.0383333333334	0	n/a	297024	KeyDown	41324	2	Ring	25
495.2783333333334	0	n/a	297168	KeyDown	41324	4	Index	25
495.4466666666667	0	n/a	297269	KeyDown	41324	4	Index	25
495.6716666666667	0	n/a	297404	KeyDown	41324	1	Little	25
495.9050000000000	0	n/a	297544	KeyDown	41324	3	Middle	25
496.0000000000001	0	n/a	297601	KeyDown	41324	2	Ring	25
496.4383333333334	0	n/a	297864	KeyDown	41324	4	Index	25
496.6016666666667	0	n/a	297962	KeyDown	41324	4	Index	25
496.8466666666667	0	n/a	298109	KeyDown	41324	1	Little	25
497.3633333333333	0	n/a	298419	KeyDown	41324	3	Middle	25
497.4866666666667	0	n/a	298493	KeyDown	41324	2	Ring	25
497.8166666666667	0	n/a	298691	KeyDown	41324	4	Index	25
497.9833333333333	0	n/a	298791	KeyDown	41324	4	Index	25
498.2166666666667	0	n/a	298931	KeyDown	41324	1	Little	25
498.4516666666667	0	n/a	299072	KeyDown	41324	3	Middle	25
498.5683333333334	0	n/a	299142	KeyDown	41324	2	Ring	25
498.8250000000000	0	n/a	299296	KeyDown	41324	4	Index	25
498.9916666666667	0	n/a	299396	KeyDown	41324	4	Index	25
499.2600000000000	0	n/a	299557	KeyDown	41324	1	Little	25
499.5333333333334	0	n/a	299721	KeyDown	41324	3	Middle	25
499.7633333333334	0	n/a	299859	KeyDown	41324	2	Ring	25
500.0383333333334	0	n/a	300024	KeyDown	41324	4	Index	25
500.2333333333333	0	n/a	300141	KeyDown	41324	4	Index	25
500.4100000000000	0	n/a	300247	KeyDown	41324	1	Little	25
500.7066666666667	0	n/a	300425	KeyDown	41324	3	Middle	25
500.7983333333333	0	n/a	300480	KeyDown	41324	2	Ring	25
501.2433333333333	0	n/a	300747	KeyDown	41324	4	Index	25
501.3983333333334	0	n/a	300840	KeyDown	41324	4	Index	25
501.5666666666667	0	n/a	300941	KeyDown	41324	1	Little	25
501.8483333333334	0	n/a	301110	KeyDown	41324	3	Middle	25
501.9483333333334	0	n/a	301170	KeyDown	41324	2	Ring	25
502.4466666666667	0	n/a	301469	StopPractice	41324	n/a	n/a	25
502.4483333333334	0	n/a	301470	StartRest	XXXXX	n/a	n/a	25
512.4900000000000	0	n/a	307495	StopRest	XXXXX	n/a	n/a	25
512.4916666666667	0	UPPT001	307496	StartPractice	41324	n/a	n/a	26
513.2950000000001	0	n/a	307978	KeyDown	41324	4	Index	26
513.4333333333334	0	n/a	308061	KeyDown	41324	1	Little	26
513.6583333333334	0	n/a	308196	KeyDown	41324	3	Middle	26
513.7383333333333	0	n/a	308244	KeyDown	41324	2	Ring	26
513.9700000000000	0	n/a	308383	KeyDown	41324	4	Index	26
514.7283333333334	0	n/a	308838	KeyDown	41324	4	Index	26
514.9983333333333	0	n/a	309000	KeyDown	41324	1	Little	26
515.3333333333334	0	n/a	309201	KeyDown	41324	3	Middle	26
515.4216666666667	0	n/a	309254	KeyDown	41324	2	Ring	26
515.6450000000000	0	n/a	309388	KeyDown	41324	4	Index	26
515.8633333333333	0	n/a	309519	KeyDown	41324	4	Index	26
516.0850000000000	0	n/a	309652	KeyDown	41324	1	Little	26
516.3516666666667	0	n/a	309812	KeyDown	41324	3	Middle	26
516.4450000000001	0	n/a	309868	KeyDown	41324	2	Ring	26
516.6750000000001	0	n/a	310006	KeyDown	41324	4	Index	26
517.1483333333333	0	n/a	310290	KeyDown	41324	4	Index	26
517.3650000000000	0	n/a	310420	KeyDown	41324	1	Little	26
517.6283333333333	0	n/a	310578	KeyDown	41324	3	Middle	26
517.6983333333334	0	n/a	310620	KeyDown	41324	2	Ring	26
518.0333333333334	0	n/a	310821	KeyDown	41324	4	Index	26
518.2183333333334	0	n/a	310932	KeyDown	41324	4	Index	26
518.3666666666667	0	n/a	311021	KeyDown	41324	1	Little	26
518.6533333333334	0	n/a	311193	KeyDown	41324	3	Middle	26
518.7833333333334	0	n/a	311271	KeyDown	41324	2	Ring	26
519.2666666666667	0	n/a	311561	KeyDown	41324	4	Index	26
519.4483333333334	0	n/a	311670	KeyDown	41324	4	Index	26
519.6533333333334	0	n/a	311793	KeyDown	41324	1	Little	26
520.4016666666668	0	n/a	312242	KeyDown	41324	4	Index	26
520.5950000000000	0	n/a	312358	KeyDown	41324	3	Middle	26
520.7633333333333	0	n/a	312459	KeyDown	41324	2	Ring	26
521.1983333333334	0	n/a	312720	KeyDown	41324	1	Little	26
521.5550000000001	0	n/a	312934	KeyDown	41324	4	Index	26
521.7050000000000	0	n/a	313024	KeyDown	41324	4	Index	26
522.0350000000001	0	n/a	313222	KeyDown	41324	1	Little	26
522.4750000000000	0	n/a	313486	KeyDown	41324	3	Middle	26
522.5383333333334	0	n/a	313524	StopPractice	41324	n/a	n/a	26
522.5400000000001	0	n/a	313525	StartRest	XXXXX	n/a	n/a	26
532.5816666666667	0	n/a	319550	StopRest	XXXXX	n/a	n/a	26
532.5833333333334	0	UPPT001	319551	StartPractice	41324	n/a	n/a	27
533.2400000000000	0	n/a	319945	KeyDown	41324	4	Index	27
533.3800000000000	0	n/a	320029	KeyDown	41324	1	Little	27
533.6366666666667	0	n/a	320183	KeyDown	41324	3	Middle	27
533.7366666666667	0	n/a	320243	KeyDown	41324	2	Ring	27
533.9516666666667	0	n/a	320372	KeyDown	41324	4	Index	27
534.2366666666667	0	n/a	320543	KeyDown	41324	4	Index	27
534.5033333333333	0	n/a	320703	KeyDown	41324	1	Little	27
534.8166666666667	0	n/a	320891	KeyDown	41324	3	Middle	27
534.9683333333334	0	n/a	320982	KeyDown	41324	2	Ring	27
535.2100000000000	0	n/a	321127	KeyDown	41324	4	Index	27
535.3916666666667	0	n/a	321236	KeyDown	41324	4	Index	27
535.6066666666667	0	n/a	321365	KeyDown	41324	1	Little	27
535.8616666666667	0	n/a	321518	KeyDown	41324	3	Middle	27
535.9850000000000	0	n/a	321592	KeyDown	41324	2	Ring	27
536.2366666666667	0	n/a	321743	KeyDown	41324	4	Index	27
536.4016666666668	0	n/a	321842	KeyDown	41324	4	Index	27
536.5900000000000	0	n/a	321955	KeyDown	41324	1	Little	27
537.4166666666667	0	n/a	322451	KeyDown	41324	3	Middle	27
537.5266666666668	0	n/a	322517	KeyDown	41324	2	Ring	27
537.7533333333333	0	n/a	322653	KeyDown	41324	4	Index	27
537.9266666666667	0	n/a	322757	KeyDown	41324	4	Index	27
538.0766666666667	0	n/a	322847	KeyDown	41324	1	Little	27
538.8250000000000	0	n/a	323296	KeyDown	41324	3	Middle	27
538.9216666666667	0	n/a	323354	KeyDown	41324	2	Ring	27
539.2950000000001	0	n/a	323578	KeyDown	41324	4	Index	27
539.4383333333334	0	n/a	323664	KeyDown	41324	4	Index	27
539.5650000000001	0	n/a	323740	KeyDown	41324	1	Little	27
539.9750000000000	0	n/a	323986	KeyDown	41324	2	Ring	27
541.0650000000001	0	n/a	324640	KeyDown	41324	3	Middle	27
541.4266666666667	0	n/a	324857	KeyDown	41324	4	Index	27
541.5633333333334	0	n/a	324939	KeyDown	41324	4	Index	27
541.8500000000000	0	n/a	325111	KeyDown	41324	1	Little	27
542.0916666666667	0	n/a	325256	KeyDown	41324	3	Middle	27
542.1866666666667	0	n/a	325313	KeyDown	41324	2	Ring	27
542.4200000000001	0	n/a	325453	KeyDown	41324	4	Index	27
542.5650000000001	0	n/a	325540	KeyDown	41324	4	Index	27
542.6300000000000	0	n/a	325579	StopPractice	41324	n/a	n/a	27
542.6316666666667	0	n/a	325580	StartRest	XXXXX	n/a	n/a	27
552.6733333333334	0	n/a	331605	StopRest	XXXXX	n/a	n/a	27
552.6750000000001	0	UPPT001	331606	StartPractice	41324	n/a	n/a	28
553.3033333333334	0	n/a	331983	KeyDown	41324	4	Index	28
553.4316666666667	0	n/a	332060	KeyDown	41324	1	Little	28
553.7033333333334	0	n/a	332223	KeyDown	41324	3	Middle	28
553.8033333333334	0	n/a	332283	KeyDown	41324	2	Ring	28
554.0083333333333	0	n/a	332406	KeyDown	41324	4	Index	28
554.3716666666667	0	n/a	332624	KeyDown	41324	1	Little	28
555.2566666666667	0	n/a	333155	KeyDown	41324	3	Middle	28
555.3433333333334	0	n/a	333207	KeyDown	41324	2	Ring	28
555.6283333333333	0	n/a	333378	KeyDown	41324	4	Index	28
555.7916666666667	0	n/a	333476	KeyDown	41324	4	Index	28
555.9833333333333	0	n/a	333591	KeyDown	41324	1	Little	28
556.2283333333334	0	n/a	333738	KeyDown	41324	3	Middle	28
556.3150000000001	0	n/a	333790	KeyDown	41324	2	Ring	28
556.5633333333334	0	n/a	333939	KeyDown	41324	4	Index	28
556.7216666666667	0	n/a	334034	KeyDown	41324	4	Index	28
556.8916666666667	0	n/a	334136	KeyDown	41324	1	Little	28
557.1316666666667	0	n/a	334280	KeyDown	41324	3	Middle	28
557.2316666666667	0	n/a	334340	KeyDown	41324	2	Ring	28
557.5716666666667	0	n/a	334544	KeyDown	41324	4	Index	28
557.7183333333334	0	n/a	334632	KeyDown	41324	4	Index	28
557.9000000000001	0	n/a	334741	KeyDown	41324	1	Little	28
558.6216666666667	0	n/a	335174	KeyDown	41324	3	Middle	28
558.7250000000000	0	n/a	335236	KeyDown	41324	2	Ring	28
558.9083333333334	0	n/a	335346	KeyDown	41324	4	Index	28
559.0783333333334	0	n/a	335448	KeyDown	41324	4	Index	28
559.2533333333333	0	n/a	335553	KeyDown	41324	1	Little	28
559.7416666666667	0	n/a	335846	KeyDown	41324	3	Middle	28
559.8400000000000	0	n/a	335905	KeyDown	41324	2	Ring	28
560.3366666666667	0	n/a	336203	KeyDown	41324	4	Index	28
560.4766666666667	0	n/a	336287	KeyDown	41324	4	Index	28
560.6216666666667	0	n/a	336374	KeyDown	41324	1	Little	28
560.8883333333333	0	n/a	336534	KeyDown	41324	3	Middle	28
560.9866666666667	0	n/a	336593	KeyDown	41324	2	Ring	28
561.3850000000000	0	n/a	336832	KeyDown	41324	4	Index	28
561.5100000000000	0	n/a	336907	KeyDown	41324	4	Index	28
561.6566666666668	0	n/a	336995	KeyDown	41324	1	Little	28
562.1333333333333	0	n/a	337281	KeyDown	41324	3	Middle	28
562.2333333333333	0	n/a	337341	KeyDown	41324	2	Ring	28
562.4966666666667	0	n/a	337499	KeyDown	41324	4	Index	28
562.6650000000001	0	n/a	337600	KeyDown	41324	4	Index	28
562.7216666666667	0	n/a	337634	StopPractice	41324	n/a	n/a	28
562.7233333333334	0	n/a	337635	StartRest	XXXXX	n/a	n/a	28
572.7483333333333	0	n/a	343650	StopRest	XXXXX	n/a	n/a	28
572.7500000000000	0	UPPT001	343651	StartPractice	41324	n/a	n/a	29
573.2833333333334	0	n/a	343971	KeyDown	41324	4	Index	29
573.3866666666667	0	n/a	344033	KeyDown	41324	1	Little	29
573.6466666666666	0	n/a	344189	KeyDown	41324	3	Middle	29
573.7066666666667	0	n/a	344225	KeyDown	41324	2	Ring	29
574.0616666666667	0	n/a	344438	KeyDown	41324	4	Index	29
574.2550000000000	0	n/a	344554	KeyDown	41324	4	Index	29
574.4383333333334	0	n/a	344664	KeyDown	41324	1	Little	29
574.6766666666667	0	n/a	344807	KeyDown	41324	3	Middle	29
574.7850000000001	0	n/a	344872	KeyDown	41324	2	Ring	29
575.0066666666667	0	n/a	345005	KeyDown	41324	4	Index	29
575.1733333333334	0	n/a	345105	KeyDown	41324	4	Index	29
575.3433333333334	0	n/a	345207	KeyDown	41324	1	Little	29
575.6366666666667	0	n/a	345383	KeyDown	41324	3	Middle	29
575.7350000000000	0	n/a	345442	KeyDown	41324	2	Ring	29
575.9483333333334	0	n/a	345570	KeyDown	41324	4	Index	29
576.1083333333333	0	n/a	345666	KeyDown	41324	4	Index	29
576.2416666666667	0	n/a	345746	KeyDown	41324	1	Little	29
576.5233333333334	0	n/a	345915	KeyDown	41324	3	Middle	29
576.5966666666667	0	n/a	345959	KeyDown	41324	2	Ring	29
576.9383333333334	0	n/a	346164	KeyDown	41324	4	Index	29
577.1016666666667	0	n/a	346262	KeyDown	41324	4	Index	29
577.2483333333333	0	n/a	346350	KeyDown	41324	1	Little	29
577.6733333333334	0	n/a	346605	KeyDown	41324	3	Middle	29
577.7833333333334	0	n/a	346671	KeyDown	41324	2	Ring	29
578.1533333333334	0	n/a	346893	KeyDown	41324	4	Index	29
578.2933333333334	0	n/a	346977	KeyDown	41324	4	Index	29
578.4516666666667	0	n/a	347072	KeyDown	41324	1	Little	29
578.8416666666667	0	n/a	347306	KeyDown	41324	3	Middle	29
578.9416666666667	0	n/a	347366	KeyDown	41324	2	Ring	29
579.2083333333334	0	n/a	347526	KeyDown	41324	4	Index	29
579.3516666666667	0	n/a	347612	KeyDown	41324	4	Index	29
579.4766666666667	0	n/a	347687	KeyDown	41324	1	Little	29
579.7200000000000	0	n/a	347833	KeyDown	41324	3	Middle	29
579.7850000000001	0	n/a	347872	KeyDown	41324	2	Ring	29
580.1983333333334	0	n/a	348120	KeyDown	41324	4	Index	29
580.3416666666667	0	n/a	348206	KeyDown	41324	4	Index	29
580.4783333333334	0	n/a	348288	KeyDown	41324	1	Little	29
580.7466666666667	0	n/a	348449	KeyDown	41324	3	Middle	29
580.8250000000000	0	n/a	348496	KeyDown	41324	2	Ring	29
581.4250000000001	0	n/a	348856	KeyDown	41324	4	Index	29
581.5466666666667	0	n/a	348929	KeyDown	41324	4	Index	29
581.7066666666667	0	n/a	349025	KeyDown	41324	1	Little	29
581.9833333333333	0	n/a	349191	KeyDown	41324	2	Ring	29
582.3666666666667	0	n/a	349421	KeyDown	41324	3	Middle	29
582.6666666666667	0	n/a	349601	KeyDown	41324	4	Index	29
582.7966666666667	0	n/a	349679	StopPractice	41324	n/a	n/a	29
582.7983333333334	0	n/a	349680	StartRest	XXXXX	n/a	n/a	29
592.8383333333334	0	n/a	355704	StopRest	XXXXX	n/a	n/a	29
592.8400000000000	0	UPPT001	355705	StartPractice	41324	n/a	n/a	30
593.4583333333334	0	n/a	356076	KeyDown	41324	4	Index	30
593.5850000000000	0	n/a	356152	KeyDown	41324	1	Little	30
593.8833333333333	0	n/a	356331	KeyDown	41324	3	Middle	30
593.9916666666667	0	n/a	356396	KeyDown	41324	2	Ring	30
594.1983333333334	0	n/a	356520	KeyDown	41324	4	Index	30
594.3933333333333	0	n/a	356637	KeyDown	41324	1	Little	30
594.6683333333334	0	n/a	356802	KeyDown	41324	3	Middle	30
594.7650000000000	0	n/a	356860	KeyDown	41324	4	Index	30
594.8316666666667	0	n/a	356900	KeyDown	41324	2	Ring	30
595.1583333333334	0	n/a	357096	KeyDown	41324	4	Index	30
595.6883333333334	0	n/a	357414	KeyDown	41324	4	Index	30
595.9383333333334	0	n/a	357564	KeyDown	41324	1	Little	30
596.2233333333334	0	n/a	357735	KeyDown	41324	3	Middle	30
596.3183333333334	0	n/a	357792	KeyDown	41324	2	Ring	30
596.5283333333334	0	n/a	357918	KeyDown	41324	4	Index	30
596.6750000000001	0	n/a	358006	KeyDown	41324	4	Index	30
596.8166666666667	0	n/a	358091	KeyDown	41324	1	Little	30
597.0866666666667	0	n/a	358253	KeyDown	41324	3	Middle	30
597.1966666666667	0	n/a	358319	KeyDown	41324	2	Ring	30
597.4000000000001	0	n/a	358441	KeyDown	41324	4	Index	30
597.5616666666667	0	n/a	358538	KeyDown	41324	4	Index	30
597.6833333333334	0	n/a	358611	KeyDown	41324	1	Little	30
597.9400000000001	0	n/a	358765	KeyDown	41324	3	Middle	30
598.0483333333334	0	n/a	358830	KeyDown	41324	2	Ring	30
598.2633333333333	0	n/a	358959	KeyDown	41324	4	Index	30
598.4033333333334	0	n/a	359043	KeyDown	41324	4	Index	30
598.5283333333334	0	n/a	359118	KeyDown	41324	1	Little	30
598.7733333333334	0	n/a	359265	KeyDown	41324	3	Middle	30
598.8600000000000	0	n/a	359317	KeyDown	41324	2	Ring	30
599.0633333333334	0	n/a	359439	KeyDown	41324	4	Index	30
599.2133333333334	0	n/a	359529	KeyDown	41324	4	Index	30
599.3333333333334	0	n/a	359601	KeyDown	41324	1	Little	30
599.5816666666667	0	n/a	359750	KeyDown	41324	3	Middle	30
599.6533333333334	0	n/a	359793	KeyDown	41324	2	Ring	30
599.9166666666667	0	n/a	359951	KeyDown	41324	4	Index	30
600.0716666666667	0	n/a	360044	KeyDown	41324	4	Index	30
600.1866666666667	0	n/a	360113	KeyDown	41324	1	Little	30
600.5366666666667	0	n/a	360323	KeyDown	41324	3	Middle	30
600.6150000000000	0	n/a	360370	KeyDown	41324	2	Ring	30
600.9766666666667	0	n/a	360587	KeyDown	41324	4	Index	30
601.1583333333334	0	n/a	360696	KeyDown	41324	4	Index	30
601.2883333333334	0	n/a	360774	KeyDown	41324	1	Little	30
601.5116666666667	0	n/a	360908	KeyDown	41324	3	Middle	30
601.5916666666667	0	n/a	360956	KeyDown	41324	2	Ring	30
601.8266666666667	0	n/a	361097	KeyDown	41324	4	Index	30
601.9583333333334	0	n/a	361176	KeyDown	41324	4	Index	30
602.0666666666667	0	n/a	361241	KeyDown	41324	1	Little	30
602.3366666666667	0	n/a	361403	KeyDown	41324	3	Middle	30
602.3866666666667	0	n/a	361433	KeyDown	41324	2	Ring	30
602.8183333333334	0	n/a	361692	KeyDown	41324	4	Index	30
602.8866666666667	0	n/a	361733	StopPractice	41324	n/a	n/a	30
602.8883333333333	0	n/a	361734	StartRest	XXXXX	n/a	n/a	30
612.9300000000001	0	n/a	367759	StopRest	XXXXX	n/a	n/a	30
612.9316666666667	0	UPPT001	367760	StartPractice	41324	n/a	n/a	31
613.3066666666667	0	n/a	367985	KeyDown	41324	4	Index	31
613.4666666666667	0	n/a	368081	KeyDown	41324	1	Little	31
614.0833333333334	0	n/a	368451	KeyDown	41324	3	Middle	31
614.1900000000001	0	n/a	368515	KeyDown	41324	2	Ring	31
614.3883333333333	0	n/a	368634	KeyDown	41324	4	Index	31
614.5483333333334	0	n/a	368730	KeyDown	41324	4	Index	31
614.6766666666667	0	n/a	368807	KeyDown	41324	1	Little	31
614.9616666666667	0	n/a	368978	KeyDown	41324	3	Middle	31
615.0600000000001	0	n/a	369037	KeyDown	41324	2	Ring	31
615.2583333333333	0	n/a	369156	KeyDown	41324	4	Index	31
615.4166666666667	0	n/a	369251	KeyDown	41324	4	Index	31
615.5383333333334	0	n/a	369324	KeyDown	41324	1	Little	31
615.7983333333334	0	n/a	369480	KeyDown	41324	3	Middle	31
615.8733333333333	0	n/a	369525	KeyDown	41324	2	Ring	31
616.0833333333334	0	n/a	369651	KeyDown	41324	4	Index	31
616.2250000000000	0	n/a	369736	KeyDown	41324	4	Index	31
616.3383333333334	0	n/a	369804	KeyDown	41324	1	Little	31
616.5650000000001	0	n/a	369940	KeyDown	41324	3	Middle	31
616.6316666666667	0	n/a	369980	KeyDown	41324	2	Ring	31
617.0000000000000	0	n/a	370201	KeyDown	41324	4	Index	31
617.1533333333334	0	n/a	370293	KeyDown	41324	4	Index	31
617.2683333333333	0	n/a	370362	KeyDown	41324	1	Little	31
617.4916666666667	0	n/a	370496	KeyDown	41324	3	Middle	31
617.5683333333334	0	n/a	370542	KeyDown	41324	2	Ring	31
617.8800000000000	0	n/a	370729	KeyDown	41324	4	Index	31
618.0350000000001	0	n/a	370822	KeyDown	41324	4	Index	31
618.1433333333333	0	n/a	370887	KeyDown	41324	1	Little	31
618.4133333333334	0	n/a	371049	KeyDown	41324	3	Middle	31
618.4650000000000	0	n/a	371080	KeyDown	41324	2	Ring	31
618.8983333333334	0	n/a	371340	KeyDown	41324	4	Index	31
619.0533333333334	0	n/a	371433	KeyDown	41324	4	Index	31
619.1933333333334	0	n/a	371517	KeyDown	41324	1	Little	31
619.5033333333333	0	n/a	371703	KeyDown	41324	3	Middle	31
619.6183333333333	0	n/a	371772	KeyDown	41324	2	Ring	31
619.8983333333334	0	n/a	371940	KeyDown	41324	4	Index	31
620.0400000000001	0	n/a	372025	KeyDown	41324	4	Index	31
620.1650000000001	0	n/a	372100	KeyDown	41324	1	Little	31
620.4333333333334	0	n/a	372261	KeyDown	41324	3	Middle	31
620.5316666666668	0	n/a	372320	KeyDown	41324	2	Ring	31
620.7866666666667	0	n/a	372473	KeyDown	41324	4	Index	31
620.9383333333334	0	n/a	372564	KeyDown	41324	4	Index	31
621.0400000000001	0	n/a	372625	KeyDown	41324	1	Little	31
621.3250000000000	0	n/a	372796	KeyDown	41324	3	Middle	31
621.5150000000000	0	n/a	372910	KeyDown	41324	2	Ring	31
621.7650000000000	0	n/a	373060	KeyDown	41324	4	Index	31
621.9550000000000	0	n/a	373174	KeyDown	41324	4	Index	31
622.0650000000001	0	n/a	373240	KeyDown	41324	1	Little	31
622.3150000000001	0	n/a	373390	KeyDown	41324	3	Middle	31
622.3983333333334	0	n/a	373440	KeyDown	41324	2	Ring	31
622.7583333333333	0	n/a	373656	KeyDown	41324	4	Index	31
622.9083333333334	0	n/a	373746	KeyDown	41324	4	Index	31
622.9783333333334	0	n/a	373788	StopPractice	41324	n/a	n/a	31
622.9800000000000	0	n/a	373789	StartRest	XXXXX	n/a	n/a	31
633.0216666666668	0	n/a	379814	StopRest	XXXXX	n/a	n/a	31
633.0233333333334	0	UPPT001	379815	StartPractice	41324	n/a	n/a	32
633.3916666666667	0	n/a	380036	KeyDown	41324	4	Index	32
633.5016666666667	0	n/a	380102	KeyDown	41324	1	Little	32
633.7283333333334	0	n/a	380238	KeyDown	41324	3	Middle	32
633.7933333333334	0	n/a	380277	KeyDown	41324	2	Ring	32
634.0216666666668	0	n/a	380414	KeyDown	41324	4	Index	32
634.1883333333334	0	n/a	380514	KeyDown	41324	4	Index	32
634.3366666666667	0	n/a	380603	KeyDown	41324	1	Little	32
634.6166666666667	0	n/a	380771	KeyDown	41324	3	Middle	32
634.7116666666667	0	n/a	380828	KeyDown	41324	2	Ring	32
634.9200000000001	0	n/a	380953	KeyDown	41324	4	Index	32
635.0683333333334	0	n/a	381042	KeyDown	41324	4	Index	32
635.1916666666667	0	n/a	381116	KeyDown	41324	1	Little	32
635.4500000000000	0	n/a	381271	KeyDown	41324	3	Middle	32
635.6250000000000	0	n/a	381376	KeyDown	41324	2	Ring	32
635.8150000000001	0	n/a	381490	KeyDown	41324	4	Index	32
635.9833333333333	0	n/a	381591	KeyDown	41324	4	Index	32
636.1150000000000	0	n/a	381670	KeyDown	41324	1	Little	32
636.3816666666667	0	n/a	381830	KeyDown	41324	3	Middle	32
636.4566666666667	0	n/a	381875	KeyDown	41324	2	Ring	32
636.6350000000000	0	n/a	381982	KeyDown	41324	4	Index	32
636.7850000000001	0	n/a	382072	KeyDown	41324	4	Index	32
636.8983333333334	0	n/a	382140	KeyDown	41324	1	Little	32
637.1783333333334	0	n/a	382308	KeyDown	41324	3	Middle	32
637.2283333333334	0	n/a	382338	KeyDown	41324	2	Ring	32
637.4650000000000	0	n/a	382480	KeyDown	41324	4	Index	32
637.6133333333333	0	n/a	382569	KeyDown	41324	4	Index	32
637.7250000000000	0	n/a	382636	KeyDown	41324	1	Little	32
637.9850000000000	0	n/a	382792	KeyDown	41324	3	Middle	32
638.0800000000000	0	n/a	382849	KeyDown	41324	2	Ring	32
638.2850000000001	0	n/a	382972	KeyDown	41324	4	Index	32
638.4250000000001	0	n/a	383056	KeyDown	41324	4	Index	32
638.5216666666668	0	n/a	383114	KeyDown	41324	1	Little	32
638.8466666666667	0	n/a	383309	KeyDown	41324	3	Middle	32
638.9566666666667	0	n/a	383375	KeyDown	41324	2	Ring	32
639.1166666666667	0	n/a	383471	KeyDown	41324	4	Index	32
639.2683333333334	0	n/a	383562	KeyDown	41324	4	Index	32
639.3666666666667	0	n/a	383621	KeyDown	41324	1	Little	32
639.6000000000000	0	n/a	383761	KeyDown	41324	3	Middle	32
639.7366666666667	0	n/a	383843	KeyDown	41324	2	Ring	32
640.0566666666667	0	n/a	384035	KeyDown	41324	4	Index	32
640.2016666666667	0	n/a	384122	KeyDown	41324	4	Index	32
640.3350000000000	0	n/a	384202	KeyDown	41324	1	Little	32
640.5250000000001	0	n/a	384316	KeyDown	41324	2	Ring	32
640.5650000000001	0	n/a	384340	KeyDown	41324	3	Middle	32
640.7150000000000	0	n/a	384430	KeyDown	41324	2	Ring	32
641.0000000000000	0	n/a	384601	KeyDown	41324	4	Index	32
641.1383333333333	0	n/a	384684	KeyDown	41324	4	Index	32
641.2900000000001	0	n/a	384775	KeyDown	41324	1	Little	32
641.4766666666667	0	n/a	384887	KeyDown	41324	2	Ring	32
641.6400000000000	0	n/a	384985	KeyDown	41324	3	Middle	32
642.1950000000001	0	n/a	385318	KeyDown	41324	4	Index	32
642.3350000000000	0	n/a	385402	KeyDown	41324	4	Index	32
642.4766666666667	0	n/a	385487	KeyDown	41324	1	Little	32
642.7650000000000	0	n/a	385660	KeyDown	41324	3	Middle	32
642.8166666666667	0	n/a	385691	KeyDown	41324	2	Ring	32
643.0700000000001	0	n/a	385843	StopPractice	41324	n/a	n/a	32
643.0716666666667	0	n/a	385844	StartRest	XXXXX	n/a	n/a	32
653.1133333333333	0	n/a	391869	StopRest	XXXXX	n/a	n/a	32
653.1150000000000	0	UPPT001	391870	StartPractice	41324	n/a	n/a	33
653.5500000000001	0	n/a	392131	KeyDown	41324	4	Index	33
653.6416666666668	0	n/a	392186	KeyDown	41324	1	Little	33
653.8700000000000	0	n/a	392323	KeyDown	41324	2	Ring	33
653.8866666666667	0	n/a	392333	KeyDown	41324	3	Middle	33
653.9733333333334	0	n/a	392385	KeyDown	41324	2	Ring	33
654.1500000000001	0	n/a	392491	KeyDown	41324	3	Middle	33
654.3216666666667	0	n/a	392594	KeyDown	41324	4	Index	33
654.4866666666667	0	n/a	392693	KeyDown	41324	4	Index	33
654.6616666666667	0	n/a	392798	KeyDown	41324	1	Little	33
654.9366666666667	0	n/a	392963	KeyDown	41324	3	Middle	33
655.0350000000001	0	n/a	393022	KeyDown	41324	2	Ring	33
655.2400000000000	0	n/a	393145	KeyDown	41324	4	Index	33
655.4000000000001	0	n/a	393241	KeyDown	41324	4	Index	33
655.5450000000001	0	n/a	393328	KeyDown	41324	1	Little	33
655.7866666666667	0	n/a	393473	KeyDown	41324	3	Middle	33
655.8683333333333	0	n/a	393522	KeyDown	41324	2	Ring	33
656.0883333333334	0	n/a	393654	KeyDown	41324	4	Index	33
656.2316666666667	0	n/a	393740	KeyDown	41324	4	Index	33
656.3616666666667	0	n/a	393818	KeyDown	41324	1	Little	33
656.6100000000000	0	n/a	393967	KeyDown	41324	3	Middle	33
656.6816666666667	0	n/a	394010	KeyDown	41324	2	Ring	33
656.9266666666667	0	n/a	394157	KeyDown	41324	4	Index	33
657.0766666666667	0	n/a	394247	KeyDown	41324	4	Index	33
657.1983333333334	0	n/a	394320	KeyDown	41324	1	Little	33
657.4366666666667	0	n/a	394463	KeyDown	41324	3	Middle	33
657.5416666666667	0	n/a	394526	KeyDown	41324	2	Ring	33
657.8466666666667	0	n/a	394709	KeyDown	41324	4	Index	33
658.0100000000000	0	n/a	394807	KeyDown	41324	4	Index	33
658.1416666666668	0	n/a	394886	KeyDown	41324	1	Little	33
658.3833333333333	0	n/a	395031	KeyDown	41324	3	Middle	33
658.4866666666667	0	n/a	395093	KeyDown	41324	2	Ring	33
658.6950000000001	0	n/a	395218	KeyDown	41324	4	Index	33
658.8483333333334	0	n/a	395310	KeyDown	41324	4	Index	33
659.0016666666667	0	n/a	395402	KeyDown	41324	1	Little	33
659.2766666666668	0	n/a	395567	KeyDown	41324	3	Middle	33
659.3533333333334	0	n/a	395613	KeyDown	41324	2	Ring	33
659.5966666666667	0	n/a	395759	KeyDown	41324	4	Index	33
659.7383333333333	0	n/a	395844	KeyDown	41324	4	Index	33
659.8816666666667	0	n/a	395930	KeyDown	41324	1	Little	33
660.1666666666667	0	n/a	396101	KeyDown	41324	3	Middle	33
660.2466666666667	0	n/a	396149	KeyDown	41324	2	Ring	33
660.5300000000001	0	n/a	396319	KeyDown	41324	4	Index	33
660.6866666666667	0	n/a	396413	KeyDown	41324	4	Index	33
660.9300000000001	0	n/a	396559	KeyDown	41324	1	Little	33
661.3483333333334	0	n/a	396810	KeyDown	41324	3	Middle	33
661.4100000000001	0	n/a	396847	KeyDown	41324	2	Ring	33
661.6533333333334	0	n/a	396993	KeyDown	41324	4	Index	33
661.8016666666667	0	n/a	397082	KeyDown	41324	4	Index	33
661.9400000000001	0	n/a	397165	KeyDown	41324	1	Little	33
662.2216666666667	0	n/a	397334	KeyDown	41324	2	Ring	33
662.5150000000000	0	n/a	397510	KeyDown	41324	3	Middle	33
662.8150000000001	0	n/a	397690	KeyDown	41324	4	Index	33
662.9666666666667	0	n/a	397781	KeyDown	41324	4	Index	33
663.1616666666667	0	n/a	397898	StopPractice	41324	n/a	n/a	33
663.1633333333334	0	n/a	397899	StartRest	XXXXX	n/a	n/a	33
673.2050000000000	0	n/a	403924	StopRest	XXXXX	n/a	n/a	33
673.2066666666667	0	UPPT001	403925	StartPractice	41324	n/a	n/a	34
673.6366666666667	0	n/a	404183	KeyDown	41324	4	Index	34
673.7500000000000	0	n/a	404251	KeyDown	41324	1	Little	34
674.0316666666668	0	n/a	404420	KeyDown	41324	2	Ring	34
674.1633333333334	0	n/a	404499	KeyDown	41324	3	Middle	34
674.4950000000000	0	n/a	404698	KeyDown	41324	4	Index	34
674.6433333333334	0	n/a	404787	KeyDown	41324	4	Index	34
674.8433333333334	0	n/a	404907	KeyDown	41324	1	Little	34
675.0950000000000	0	n/a	405058	KeyDown	41324	3	Middle	34
675.2083333333334	0	n/a	405126	KeyDown	41324	2	Ring	34
675.4083333333334	0	n/a	405246	KeyDown	41324	4	Index	34
675.5566666666667	0	n/a	405335	KeyDown	41324	4	Index	34
675.7100000000000	0	n/a	405427	KeyDown	41324	1	Little	34
675.9516666666667	0	n/a	405572	KeyDown	41324	3	Middle	34
676.0166666666668	0	n/a	405611	KeyDown	41324	2	Ring	34
676.2383333333333	0	n/a	405744	KeyDown	41324	4	Index	34
676.3833333333333	0	n/a	405831	KeyDown	41324	4	Index	34
676.4916666666667	0	n/a	405896	KeyDown	41324	1	Little	34
676.8050000000001	0	n/a	406084	KeyDown	41324	3	Middle	34
676.8983333333334	0	n/a	406140	KeyDown	41324	2	Ring	34
677.0950000000000	0	n/a	406258	KeyDown	41324	4	Index	34
677.2433333333333	0	n/a	406347	KeyDown	41324	4	Index	34
677.3700000000000	0	n/a	406423	KeyDown	41324	1	Little	34
677.6383333333333	0	n/a	406584	KeyDown	41324	3	Middle	34
677.7366666666667	0	n/a	406643	KeyDown	41324	2	Ring	34
678.0133333333333	0	n/a	406809	KeyDown	41324	3	Middle	34
678.0950000000000	0	n/a	406858	KeyDown	41324	4	Index	34
678.3033333333334	0	n/a	406983	KeyDown	41324	4	Index	34
678.5466666666667	0	n/a	407129	KeyDown	41324	1	Little	34
678.7983333333334	0	n/a	407280	KeyDown	41324	3	Middle	34
678.9116666666667	0	n/a	407348	KeyDown	41324	2	Ring	34
679.1316666666667	0	n/a	407480	KeyDown	41324	4	Index	34
679.2683333333334	0	n/a	407562	KeyDown	41324	4	Index	34
679.4383333333334	0	n/a	407664	KeyDown	41324	1	Little	34
679.6633333333334	0	n/a	407799	KeyDown	41324	3	Middle	34
679.7450000000000	0	n/a	407848	KeyDown	41324	2	Ring	34
679.9700000000000	0	n/a	407983	KeyDown	41324	4	Index	34
680.1100000000000	0	n/a	408067	KeyDown	41324	4	Index	34
680.2383333333333	0	n/a	408144	KeyDown	41324	1	Little	34
680.5650000000001	0	n/a	408340	KeyDown	41324	3	Middle	34
680.7433333333333	0	n/a	408447	KeyDown	41324	2	Ring	34
680.9516666666667	0	n/a	408572	KeyDown	41324	4	Index	34
681.1133333333333	0	n/a	408669	KeyDown	41324	4	Index	34
681.2633333333333	0	n/a	408759	KeyDown	41324	1	Little	34
681.5216666666668	0	n/a	408914	KeyDown	41324	3	Middle	34
681.6166666666667	0	n/a	408971	KeyDown	41324	2	Ring	34
681.9583333333334	0	n/a	409176	KeyDown	41324	4	Index	34
682.1233333333333	0	n/a	409275	KeyDown	41324	4	Index	34
682.3366666666667	0	n/a	409403	KeyDown	41324	1	Little	34
682.7083333333334	0	n/a	409626	KeyDown	41324	2	Ring	34
682.8916666666668	0	n/a	409736	KeyDown	41324	3	Middle	34
683.2533333333333	0	n/a	409953	StopPractice	41324	n/a	n/a	34
683.2550000000000	0	n/a	409954	StartRest	XXXXX	n/a	n/a	34
693.2866666666667	0	n/a	415973	StopRest	XXXXX	n/a	n/a	34
693.2883333333334	0	UPPT001	415974	StartPractice	41324	n/a	n/a	35
693.8250000000000	0	n/a	416296	KeyDown	41324	4	Index	35
693.9216666666667	0	n/a	416354	KeyDown	41324	1	Little	35
694.2283333333334	0	n/a	416538	KeyDown	41324	3	Middle	35
694.3016666666667	0	n/a	416582	KeyDown	41324	2	Ring	35
694.4916666666667	0	n/a	416696	KeyDown	41324	4	Index	35
694.6800000000001	0	n/a	416809	KeyDown	41324	4	Index	35
694.9483333333334	0	n/a	416970	KeyDown	41324	1	Little	35
695.2666666666668	0	n/a	417161	KeyDown	41324	3	Middle	35
695.3533333333334	0	n/a	417213	KeyDown	41324	2	Ring	35
695.5483333333334	0	n/a	417330	KeyDown	41324	4	Index	35
695.7033333333334	0	n/a	417423	KeyDown	41324	4	Index	35
695.8500000000000	0	n/a	417511	KeyDown	41324	1	Little	35
696.1066666666667	0	n/a	417665	KeyDown	41324	3	Middle	35
696.1933333333334	0	n/a	417717	KeyDown	41324	2	Ring	35
696.4066666666668	0	n/a	417845	KeyDown	41324	4	Index	35
696.5616666666667	0	n/a	417938	KeyDown	41324	4	Index	35
696.7600000000000	0	n/a	418057	KeyDown	41324	1	Little	35
697.1150000000000	0	n/a	418270	KeyDown	41324	3	Middle	35
697.2550000000000	0	n/a	418354	KeyDown	41324	2	Ring	35
697.5183333333334	0	n/a	418512	KeyDown	41324	4	Index	35
697.6583333333334	0	n/a	418596	KeyDown	41324	4	Index	35
697.8050000000001	0	n/a	418684	KeyDown	41324	1	Little	35
698.0666666666667	0	n/a	418841	KeyDown	41324	3	Middle	35
698.1783333333334	0	n/a	418908	KeyDown	41324	2	Ring	35
698.3833333333333	0	n/a	419031	KeyDown	41324	4	Index	35
698.5316666666668	0	n/a	419120	KeyDown	41324	4	Index	35
698.6816666666667	0	n/a	419210	KeyDown	41324	1	Little	35
698.9400000000001	0	n/a	419365	KeyDown	41324	3	Middle	35
699.0300000000001	0	n/a	419419	KeyDown	41324	2	Ring	35
699.2700000000001	0	n/a	419563	KeyDown	41324	4	Index	35
699.4166666666667	0	n/a	419651	KeyDown	41324	4	Index	35
699.5266666666668	0	n/a	419717	KeyDown	41324	1	Little	35
699.8050000000001	0	n/a	419884	KeyDown	41324	3	Middle	35
699.9216666666667	0	n/a	419954	KeyDown	41324	2	Ring	35
700.1266666666667	0	n/a	420077	KeyDown	41324	4	Index	35
700.2600000000000	0	n/a	420157	KeyDown	41324	4	Index	35
700.4033333333334	0	n/a	420243	KeyDown	41324	1	Little	35
700.6433333333334	0	n/a	420387	KeyDown	41324	3	Middle	35
700.7350000000000	0	n/a	420442	KeyDown	41324	2	Ring	35
700.9750000000000	0	n/a	420586	KeyDown	41324	4	Index	35
701.1366666666667	0	n/a	420683	KeyDown	41324	4	Index	35
701.2816666666668	0	n/a	420770	KeyDown	41324	4	Index	35
701.4466666666667	0	n/a	420869	KeyDown	41324	1	Little	35
701.6016666666667	0	n/a	420962	KeyDown	41324	1	Little	35
701.8700000000000	0	n/a	421123	KeyDown	41324	3	Middle	35
701.9516666666667	0	n/a	421172	KeyDown	41324	2	Ring	35
702.2350000000000	0	n/a	421342	KeyDown	41324	4	Index	35
702.5300000000001	0	n/a	421519	KeyDown	41324	1	Little	35
703.3350000000000	0	n/a	422002	StopPractice	41324	n/a	n/a	35
703.3366666666667	0	n/a	422003	StartRest	XXXXX	n/a	n/a	35
713.3700000000000	0	n/a	428023	StopRest	XXXXX	n/a	n/a	35
713.3716666666667	0	UPPT001	428024	StartPractice	41324	n/a	n/a	36
713.9083333333334	0	n/a	428346	KeyDown	41324	4	Index	36
714.1000000000000	0	n/a	428461	KeyDown	41324	1	Little	36
714.3350000000000	0	n/a	428602	KeyDown	41324	3	Middle	36
714.4116666666667	0	n/a	428648	KeyDown	41324	2	Ring	36
714.6250000000000	0	n/a	428776	KeyDown	41324	4	Index	36
714.8166666666667	0	n/a	428891	KeyDown	41324	4	Index	36
715.3050000000001	0	n/a	429184	KeyDown	41324	1	Little	36
715.6433333333334	0	n/a	429387	KeyDown	41324	3	Middle	36
715.7750000000001	0	n/a	429466	KeyDown	41324	2	Ring	36
715.9900000000000	0	n/a	429595	KeyDown	41324	4	Index	36
716.1600000000001	0	n/a	429697	KeyDown	41324	4	Index	36
716.3066666666667	0	n/a	429785	KeyDown	41324	1	Little	36
716.5783333333334	0	n/a	429948	KeyDown	41324	3	Middle	36
716.6616666666667	0	n/a	429998	KeyDown	41324	2	Ring	36
716.8750000000000	0	n/a	430126	KeyDown	41324	4	Index	36
717.0350000000001	0	n/a	430222	KeyDown	41324	4	Index	36
717.2000000000000	0	n/a	430321	KeyDown	41324	1	Little	36
717.4650000000000	0	n/a	430480	KeyDown	41324	3	Middle	36
717.5750000000000	0	n/a	430546	KeyDown	41324	2	Ring	36
717.7750000000001	0	n/a	430666	KeyDown	41324	4	Index	36
717.9250000000001	0	n/a	430756	KeyDown	41324	4	Index	36
718.0716666666667	0	n/a	430844	KeyDown	41324	1	Little	36
718.3233333333334	0	n/a	430995	KeyDown	41324	3	Middle	36
718.4350000000001	0	n/a	431062	KeyDown	41324	2	Ring	36
718.6283333333333	0	n/a	431178	KeyDown	41324	4	Index	36
718.7833333333334	0	n/a	431271	KeyDown	41324	4	Index	36
718.9366666666667	0	n/a	431363	KeyDown	41324	1	Little	36
719.2200000000000	0	n/a	431533	KeyDown	41324	3	Middle	36
719.3400000000000	0	n/a	431605	KeyDown	41324	2	Ring	36
719.5483333333334	0	n/a	431730	KeyDown	41324	4	Index	36
719.7133333333334	0	n/a	431829	KeyDown	41324	4	Index	36
719.9300000000001	0	n/a	431959	KeyDown	41324	1	Little	36
720.3033333333334	0	n/a	432183	KeyDown	41324	3	Middle	36
720.4466666666667	0	n/a	432269	KeyDown	41324	2	Ring	36
720.7750000000001	0	n/a	432466	KeyDown	41324	4	Index	36
720.9366666666667	0	n/a	432563	KeyDown	41324	4	Index	36
721.0700000000001	0	n/a	432643	KeyDown	41324	1	Little	36
721.3283333333334	0	n/a	432798	KeyDown	41324	3	Middle	36
721.4350000000001	0	n/a	432862	KeyDown	41324	2	Ring	36
721.6350000000000	0	n/a	432982	KeyDown	41324	4	Index	36
721.7900000000001	0	n/a	433075	KeyDown	41324	4	Index	36
721.9633333333334	0	n/a	433179	KeyDown	41324	1	Little	36
722.3766666666667	0	n/a	433427	KeyDown	41324	3	Middle	36
722.5033333333333	0	n/a	433503	KeyDown	41324	2	Ring	36
722.6900000000001	0	n/a	433615	KeyDown	41324	4	Index	36
722.8383333333334	0	n/a	433704	KeyDown	41324	4	Index	36
722.9800000000000	0	n/a	433789	KeyDown	41324	1	Little	36
723.2150000000000	0	n/a	433930	KeyDown	41324	3	Middle	36
723.3300000000000	0	n/a	433999	KeyDown	41324	2	Ring	36
723.4183333333334	0	n/a	434052	StopPractice	41324	n/a	n/a	36
723.4200000000001	0	n/a	434053	StartRest	XXXXX	n/a	n/a	36
733.4633333333334	0	n/a	440079	StopRest	XXXXX	n/a	n/a	36
