onset	duration	channel	onset_sample_idx	event_type	target_sequence	keypress_id	finger_label	trial_number
8.3666666666667	0	UPPT001	5021	StartPractice	41324	n/a	n/a	1
10.7833333333333	0	n/a	6471	KeyDown	41324	4	Index	1
11.7233333333333	0	n/a	7035	KeyDown	41324	1	Little	1
12.5216666666667	0	n/a	7514	KeyDown	41324	3	Middle	1
14.4983333333333	0	n/a	8700	KeyDown	41324	2	Ring	1
15.1450000000000	0	n/a	9088	KeyDown	41324	4	Index	1
16.5066666666667	0	n/a	9905	KeyDown	41324	4	Index	1
17.1383333333333	0	n/a	10284	KeyDown	41324	1	Little	1
17.8233333333333	0	n/a	10695	KeyDown	41324	3	Middle	1
18.4050000000000	0	n/a	11044	StopPractice	41324	n/a	n/a	1
18.4066666666667	0	n/a	11045	StartRest	XXXXX	n/a	n/a	1
28.4333333333333	0	n/a	17061	StopRest	XXXXX	n/a	n/a	1
28.4350000000000	0	UPPT001	17062	StartPractice	41324	n/a	n/a	2
28.9316666666667	0	n/a	17360	KeyDown	41324	4	Index	2
30.2866666666667	0	n/a	18173	KeyDown	41324	1	Little	2
30.7383333333333	0	n/a	18444	KeyDown	41324	3	Middle	2
32.3166666666667	0	n/a	19391	KeyDown	41324	2	Ring	2
33.5483333333333	0	n/a	20130	KeyDown	41324	4	Index	2
34.3200000000000	0	n/a	20593	KeyDown	41324	4	Index	2
35.5666666666667	0	n/a	21341	KeyDown	41324	1	Little	2
36.1533333333333	0	n/a	21693	KeyDown	41324	3	Middle	2
36.8050000000000	0	n/a	22084	KeyDown	41324	2	Ring	2
37.6683333333333	0	n/a	22602	KeyDown	41324	4	Index	2
38.4733333333333	0	n/a	23085	StopPractice	41324	n/a	n/a	2
38.4750000000000	0	n/a	23086	StartRest	XXXXX	n/a	n/a	2
48.5083333333333	0	n/a	29106	StopRest	XXXXX	n/a	n/a	2
48.5100000000000	0	UPPT001	29107	StartPractice	41324	n/a	n/a	3
49.1800000000000	0	n/a	29509	KeyDown	41324	4	Index	3
49.6366666666667	0	n/a	29783	KeyDown	41324	1	Little	3
50.0983333333333	0	n/a	30060	KeyDown	41324	3	Middle	3
50.7366666666667	0	n/a	30443	KeyDown	41324	2	Ring	3
51.3566666666667	0	n/a	30815	KeyDown	41324	4	Index	3
51.9100000000000	0	n/a	31147	KeyDown	41324	4	Index	3
52.7583333333333	0	n/a	31656	KeyDown	41324	1	Little	3
54.8300000000000	0	n/a	32899	KeyDown	41324	3	Middle	3
55.4016666666667	0	n/a	33242	KeyDown	41324	2	Ring	3
55.8483333333333	0	n/a	33510	KeyDown	41324	4	Index	3
56.3783333333333	0	n/a	33828	KeyDown	41324	4	Index	3
56.7483333333333	0	n/a	34050	KeyDown	41324	1	Little	3
57.8333333333333	0	n/a	34701	KeyDown	41324	2	Ring	3
58.5483333333333	0	n/a	35130	StopPractice	41324	n/a	n/a	3
58.5500000000000	0	n/a	35131	StartRest	XXXXX	n/a	n/a	3
68.5816666666667	0	n/a	41150	StopRest	XXXXX	n/a	n/a	3
68.5833333333333	0	UPPT001	41151	StartPractice	41324	n/a	n/a	4
69.4516666666667	0	n/a	41672	KeyDown	41324	4	Index	4
70.7400000000000	0	n/a	42445	KeyDown	41324	1	Little	4
71.4816666666667	0	n/a	42890	KeyDown	41324	3	Middle	4
72.0566666666667	0	n/a	43235	KeyDown	41324	2	Ring	4
72.7066666666667	0	n/a	43625	KeyDown	41324	4	Index	4
73.2916666666667	0	n/a	43976	KeyDown	41324	4	Index	4
73.8000000000000	0	n/a	44281	KeyDown	41324	1	Little	4
74.2250000000000	0	n/a	44536	KeyDown	41324	3	Middle	4
74.6166666666667	0	n/a	44771	KeyDown	41324	2	Ring	4
74.9600000000000	0	n/a	44977	KeyDown	41324	4	Index	4
75.4450000000000	0	n/a	45268	KeyDown	41324	4	Index	4
75.8533333333333	0	n/a	45513	KeyDown	41324	1	Little	4
76.6266666666667	0	n/a	45977	KeyDown	41324	3	Middle	4
77.1166666666667	0	n/a	46271	KeyDown	41324	2	Ring	4
77.4700000000000	0	n/a	46483	KeyDown	41324	4	Index	4
77.9800000000000	0	n/a	46789	KeyDown	41324	4	Index	4
78.3666666666667	0	n/a	47021	KeyDown	41324	1	Little	4
78.6216666666667	0	n/a	47174	StopPractice	41324	n/a	n/a	4
78.6233333333333	0	n/a	47175	StartRest	XXXXX	n/a	n/a	4
88.6583333333333	0	n/a	53196	StopRest	XXXXX	n/a	n/a	4
88.6600000000000	0	UPPT001	53197	StartPractice	41324	n/a	n/a	5
89.4033333333333	0	n/a	53643	KeyDown	41324	4	Index	5
89.8266666666667	0	n/a	53897	KeyDown	41324	1	Little	5
90.2083333333333	0	n/a	54126	KeyDown	41324	3	Middle	5
90.9700000000000	0	n/a	54583	KeyDown	41324	2	Ring	5
91.3316666666667	0	n/a	54800	KeyDown	41324	4	Index	5
91.8216666666667	0	n/a	55094	KeyDown	41324	4	Index	5
92.1483333333333	0	n/a	55290	KeyDown	41324	1	Little	5
92.7333333333333	0	n/a	55641	KeyDown	41324	3	Middle	5
93.1600000000000	0	n/a	55897	KeyDown	41324	2	Ring	5
93.5350000000000	0	n/a	56122	KeyDown	41324	4	Index	5
94.0416666666667	0	n/a	56426	KeyDown	41324	4	Index	5
94.4716666666667	0	n/a	56684	KeyDown	41324	1	Little	5
95.2766666666667	0	n/a	57167	KeyDown	41324	3	Middle	5
95.6733333333333	0	n/a	57405	KeyDown	41324	2	Ring	5
95.9900000000000	0	n/a	57595	KeyDown	41324	4	Index	5
96.3616666666667	0	n/a	57818	KeyDown	41324	4	Index	5
96.7283333333333	0	n/a	58038	KeyDown	41324	1	Little	5
97.3283333333333	0	n/a	58398	KeyDown	41324	3	Middle	5
97.8583333333333	0	n/a	58716	KeyDown	41324	2	Ring	5
98.1616666666667	0	n/a	58898	KeyDown	41324	4	Index	5
98.6316666666667	0	n/a	59180	KeyDown	41324	4	Index	5
98.6983333333333	0	n/a	59220	StopPractice	41324	n/a	n/a	5
98.7000000000000	0	n/a	59221	StartRest	XXXXX	n/a	n/a	5
108.7316666666667	0	n/a	65240	StopRest	XXXXX	n/a	n/a	5
108.7333333333333	0	UPPT001	65241	StartPractice	41324	n/a	n/a	6
109.3866666666667	0	n/a	65633	KeyDown	41324	4	Index	6
109.8583333333333	0	n/a	65916	KeyDown	41324	1	Little	6
110.3300000000000	0	n/a	66199	KeyDown	41324	3	Middle	6
110.7166666666667	0	n/a	66431	KeyDown	41324	2	Ring	6
110.9650000000000	0	n/a	66580	KeyDown	41324	4	Index	6
111.3583333333333	0	n/a	66816	KeyDown	41324	4	Index	6
111.7433333333333	0	n/a	67047	KeyDown	41324	1	Little	6
112.1683333333333	0	n/a	67302	KeyDown	41324	4	Index	6
113.2250000000000	0	n/a	67936	KeyDown	41324	4	Index	6
114.0716666666667	0	n/a	68444	KeyDown	41324	1	Little	6
116.8250000000000	0	n/a	70096	KeyDown	41324	3	Middle	6
117.1866666666667	0	n/a	70313	KeyDown	41324	2	Ring	6
117.5133333333333	0	n/a	70509	KeyDown	41324	4	Index	6
117.9700000000000	0	n/a	70783	KeyDown	41324	4	Index	6
118.2800000000000	0	n/a	70969	KeyDown	41324	1	Little	6
118.7716666666667	0	n/a	71264	StopPractice	41324	n/a	n/a	6
118.7733333333333	0	n/a	71265	StartRest	XXXXX	n/a	n/a	6
128.8066666666667	0	n/a	77285	StopRest	XXXXX	n/a	n/a	6
128.8083333333333	0	UPPT001	77286	StartPractice	41324	n/a	n/a	7
129.3800000000000	0	n/a	77629	KeyDown	41324	4	Index	7
129.8566666666667	0	n/a	77915	KeyDown	41324	1	Little	7
130.5716666666667	0	n/a	78344	KeyDown	41324	3	Middle	7
130.9366666666667	0	n/a	78563	KeyDown	41324	2	Ring	7
131.2416666666667	0	n/a	78746	KeyDown	41324	4	Index	7
131.6600000000000	0	n/a	78997	KeyDown	41324	4	Index	7
131.9750000000000	0	n/a	79186	KeyDown	41324	1	Little	7
132.4266666666667	0	n/a	79457	KeyDown	41324	3	Middle	7
132.8016666666667	0	n/a	79682	KeyDown	41324	2	Ring	7
133.1216666666667	0	n/a	79874	KeyDown	41324	4	Index	7
133.6200000000000	0	n/a	80173	KeyDown	41324	4	Index	7
133.9716666666667	0	n/a	80384	KeyDown	41324	1	Little	7
134.9600000000000	0	n/a	80977	KeyDown	41324	3	Middle	7
135.3850000000000	0	n/a	81232	KeyDown	41324	2	Ring	7
135.6766666666667	0	n/a	81407	KeyDown	41324	4	Index	7
136.1166666666667	0	n/a	81671	KeyDown	41324	4	Index	7
136.4083333333333	0	n/a	81846	KeyDown	41324	1	Little	7
136.8516666666667	0	n/a	82112	KeyDown	41324	3	Middle	7
137.2800000000000	0	n/a	82369	KeyDown	41324	2	Ring	7
137.6050000000000	0	n/a	82564	KeyDown	41324	4	Index	7
138.4200000000000	0	n/a	83053	KeyDown	41324	4	Index	7
138.8466666666667	0	n/a	83309	StopPractice	41324	n/a	n/a	7
138.8483333333333	0	n/a	83310	StartRest	XXXXX	n/a	n/a	7
148.8816666666667	0	n/a	89330	StopRest	XXXXX	n/a	n/a	7
148.8833333333334	0	UPPT001	89331	StartPractice	41324	n/a	n/a	8
149.9550000000000	0	n/a	89974	KeyDown	41324	4	Index	8
150.4600000000000	0	n/a	90277	KeyDown	41324	1	Little	8
150.9966666666667	0	n/a	90599	KeyDown	41324	3	Middle	8
151.3750000000000	0	n/a	90826	KeyDown	41324	2	Ring	8
151.7900000000000	0	n/a	91075	KeyDown	41324	4	Index	8
152.3116666666667	0	n/a	91388	KeyDown	41324	4	Index	8
153.2216666666667	0	n/a	91934	KeyDown	41324	1	Little	8
153.9766666666667	0	n/a	92387	KeyDown	41324	3	Middle	8
154.4166666666667	0	n/a	92651	KeyDown	41324	2	Ring	8
154.7300000000000	0	n/a	92839	KeyDown	41324	4	Index	8
155.3483333333333	0	n/a	93210	KeyDown	41324	4	Index	8
155.7416666666667	0	n/a	93446	KeyDown	41324	1	Little	8
156.4700000000000	0	n/a	93883	KeyDown	41324	3	Middle	8
156.9216666666667	0	n/a	94154	KeyDown	41324	2	Ring	8
157.2483333333333	0	n/a	94350	KeyDown	41324	4	Index	8
157.7366666666667	0	n/a	94643	KeyDown	41324	4	Index	8
158.0800000000000	0	n/a	94849	KeyDown	41324	1	Little	8
158.7800000000000	0	n/a	95269	KeyDown	41324	3	Middle	8
158.9216666666667	0	n/a	95354	StopPractice	41324	n/a	n/a	8
158.9233333333333	0	n/a	95355	StartRest	XXXXX	n/a	n/a	8
168.9566666666667	0	n/a	101375	StopRest	XXXXX	n/a	n/a	8
168.9583333333333	0	UPPT001	101376	StartPractice	41324	n/a	n/a	9
169.5866666666667	0	n/a	101753	KeyDown	41324	4	Index	9
169.9683333333333	0	n/a	101982	KeyDown	41324	1	Little	9
170.4066666666667	0	n/a	102245	KeyDown	41324	3	Middle	9
170.7866666666667	0	n/a	102473	KeyDown	41324	2	Ring	9
171.1116666666667	0	n/a	102668	KeyDown	41324	4	Index	9
171.6616666666667	0	n/a	102998	KeyDown	41324	4	Index	9
172.2116666666667	0	n/a	103328	KeyDown	41324	1	Little	9
172.8550000000000	0	n/a	103714	KeyDown	41324	3	Middle	9
173.2350000000000	0	n/a	103942	KeyDown	41324	2	Ring	9
173.4700000000000	0	n/a	104083	KeyDown	41324	4	Index	9
174.0733333333334	0	n/a	104445	KeyDown	41324	4	Index	9
174.5566666666667	0	n/a	104735	KeyDown	41324	1	Little	9
175.0900000000000	0	n/a	105055	KeyDown	41324	3	Middle	9
175.4550000000000	0	n/a	105274	KeyDown	41324	2	Ring	9
175.7850000000000	0	n/a	105472	KeyDown	41324	4	Index	9
176.3550000000000	0	n/a	105814	KeyDown	41324	4	Index	9
176.8333333333333	0	n/a	106101	KeyDown	41324	1	Little	9
177.5816666666667	0	n/a	106550	KeyDown	41324	3	Middle	9
177.9166666666667	0	n/a	106751	KeyDown	41324	2	Ring	9
178.2700000000000	0	n/a	106963	KeyDown	41324	4	Index	9
178.9966666666667	0	n/a	107399	StopPractice	41324	n/a	n/a	9
178.9983333333333	0	n/a	107400	StartRest	XXXXX	n/a	n/a	9
189.0316666666667	0	n/a	113420	StopRest	XXXXX	n/a	n/a	9
189.0333333333333	0	UPPT001	113421	StartPractice	41324	n/a	n/a	10
189.7983333333333	0	n/a	113880	KeyDown	41324	4	Index	10
190.2000000000000	0	n/a	114121	KeyDown	41324	1	Little	10
190.7383333333333	0	n/a	114444	KeyDown	41324	3	Middle	10
191.0900000000000	0	n/a	114655	KeyDown	41324	2	Ring	10
191.4133333333334	0	n/a	114849	KeyDown	41324	4	Index	10
191.8416666666667	0	n/a	115106	KeyDown	41324	4	Index	10
192.1866666666667	0	n/a	115313	KeyDown	41324	1	Little	10
192.8900000000000	0	n/a	115735	KeyDown	41324	3	Middle	10
193.2116666666667	0	n/a	115928	KeyDown	41324	2	Ring	10
193.4266666666667	0	n/a	116057	KeyDown	41324	4	Index	10
194.0550000000000	0	n/a	116434	KeyDown	41324	4	Index	10
194.3950000000000	0	n/a	116638	KeyDown	41324	1	Little	10
195.0366666666667	0	n/a	117023	KeyDown	41324	3	Middle	10
195.4200000000000	0	n/a	117253	KeyDown	41324	2	Ring	10
195.6383333333333	0	n/a	117384	KeyDown	41324	4	Index	10
195.7416666666667	0	n/a	117446	KeyDown	41324	4	Index	10
196.1750000000000	0	n/a	117706	KeyDown	41324	4	Index	10
196.5833333333333	0	n/a	117951	KeyDown	41324	1	Little	10
197.1600000000000	0	n/a	118297	KeyDown	41324	3	Middle	10
197.5300000000000	0	n/a	118519	KeyDown	41324	2	Ring	10
197.7333333333333	0	n/a	118641	KeyDown	41324	4	Index	10
198.3266666666667	0	n/a	118997	KeyDown	41324	4	Index	10
198.6100000000000	0	n/a	119167	KeyDown	41324	1	Little	10
198.9100000000000	0	n/a	119347	KeyDown	41324	3	Middle	10
199.0716666666667	0	n/a	119444	StopPractice	41324	n/a	n/a	10
199.0733333333334	0	n/a	119445	StartRest	XXXXX	n/a	n/a	10
209.1066666666667	0	n/a	125465	StopRest	XXXXX	n/a	n/a	10
209.1083333333333	0	UPPT001	125466	StartPractice	41324	n/a	n/a	11
209.5883333333333	0	n/a	125754	KeyDown	41324	4	Index	11
209.8750000000000	0	n/a	125926	KeyDown	41324	1	Little	11
210.2616666666667	0	n/a	126158	KeyDown	41324	3	Middle	11
210.5483333333333	0	n/a	126330	KeyDown	41324	2	Ring	11
211.0816666666667	0	n/a	126650	KeyDown	41324	4	Index	11
211.5533333333333	0	n/a	126933	KeyDown	41324	4	Index	11
211.7683333333333	0	n/a	127062	KeyDown	41324	1	Little	11
212.2366666666667	0	n/a	127343	KeyDown	41324	3	Middle	11
212.6866666666667	0	n/a	127613	KeyDown	41324	2	Ring	11
212.9016666666667	0	n/a	127742	KeyDown	41324	4	Index	11
213.4200000000000	0	n/a	128053	KeyDown	41324	4	Index	11
213.8000000000000	0	n/a	128281	KeyDown	41324	1	Little	11
214.2916666666667	0	n/a	128576	KeyDown	41324	3	Middle	11
214.5150000000000	0	n/a	128710	KeyDown	41324	2	Ring	11
214.8200000000000	0	n/a	128893	KeyDown	41324	4	Index	11
215.2966666666667	0	n/a	129179	KeyDown	41324	4	Index	11
215.7083333333333	0	n/a	129426	KeyDown	41324	1	Little	11
216.4050000000000	0	n/a	129844	KeyDown	41324	3	Middle	11
216.6816666666667	0	n/a	130010	KeyDown	41324	2	Ring	11
216.9466666666667	0	n/a	130169	KeyDown	41324	4	Index	11
217.3550000000000	0	n/a	130414	KeyDown	41324	4	Index	11
217.6950000000000	0	n/a	130618	KeyDown	41324	1	Little	11
218.1433333333333	0	n/a	130887	KeyDown	41324	3	Middle	11
218.4500000000000	0	n/a	131071	KeyDown	41324	2	Ring	11
218.7050000000000	0	n/a	131224	KeyDown	41324	4	Index	11
219.1466666666667	0	n/a	131489	StopPractice	41324	n/a	n/a	11
219.1483333333333	0	n/a	131490	StartRest	XXXXX	n/a	n/a	11
229.1816666666667	0	n/a	137510	StopRest	XXXXX	n/a	n/a	11
229.1833333333333	0	UPPT001	137511	StartPractice	41324	n/a	n/a	12
229.6633333333334	0	n/a	137799	KeyDown	41324	4	Index	12
230.0383333333334	0	n/a	138024	KeyDown	41324	1	Little	12
230.3666666666667	0	n/a	138221	KeyDown	41324	3	Middle	12
230.5983333333334	0	n/a	138360	KeyDown	41324	2	Ring	12
230.8250000000000	0	n/a	138496	KeyDown	41324	4	Index	12
231.3466666666667	0	n/a	138809	KeyDown	41324	4	Index	12
231.6083333333333	0	n/a	138966	KeyDown	41324	1	Little	12
232.0133333333333	0	n/a	139209	KeyDown	41324	3	Middle	12
232.6800000000000	0	n/a	139609	KeyDown	41324	2	Ring	12
232.8700000000000	0	n/a	139723	KeyDown	41324	4	Index	12
232.9466666666667	0	n/a	139769	KeyDown	41324	4	Index	12
233.4616666666667	0	n/a	140078	KeyDown	41324	4	Index	12
233.9516666666667	0	n/a	140372	KeyDown	41324	1	Little	12
234.4750000000000	0	n/a	140686	KeyDown	41324	3	Middle	12
234.8950000000000	0	n/a	140938	KeyDown	41324	2	Ring	12
235.1400000000000	0	n/a	141085	KeyDown	41324	4	Index	12
235.7150000000000	0	n/a	141430	KeyDown	41324	4	Index	12
236.2016666666667	0	n/a	141722	KeyDown	41324	1	Little	12
236.9016666666667	0	n/a	142142	KeyDown	41324	3	Middle	12
237.1883333333334	0	n/a	142314	KeyDown	41324	2	Ring	12
237.4350000000000	0	n/a	142462	KeyDown	41324	4	Index	12
237.9200000000000	0	n/a	142753	KeyDown	41324	4	Index	12
238.2983333333333	0	n/a	142980	KeyDown	41324	1	Little	12
239.1116666666667	0	n/a	143468	KeyDown	41324	3	Middle	12
239.2216666666667	0	n/a	143534	StopPractice	41324	n/a	n/a	12
239.2233333333334	0	n/a	143535	StartRest	XXXXX	n/a	n/a	12
249.2550000000000	0	n/a	149554	StopRest	XXXXX	n/a	n/a	12
249.2566666666667	0	UPPT001	149555	StartPractice	41324	n/a	n/a	13
249.8283333333333	0	n/a	149898	KeyDown	41324	4	Index	13
250.1750000000000	0	n/a	150106	KeyDown	41324	1	Little	13
250.8016666666667	0	n/a	150482	KeyDown	41324	3	Middle	13
251.2000000000000	0	n/a	150721	KeyDown	41324	2	Ring	13
251.4983333333334	0	n/a	150900	KeyDown	41324	4	Index	13
251.9616666666667	0	n/a	151178	KeyDown	41324	4	Index	13
252.3050000000000	0	n/a	151384	KeyDown	41324	1	Little	13
252.5883333333333	0	n/a	151554	KeyDown	41324	3	Middle	13
253.0433333333334	0	n/a	151827	KeyDown	41324	2	Ring	13
253.3233333333334	0	n/a	151995	KeyDown	41324	4	Index	13
253.6783333333333	0	n/a	152208	KeyDown	41324	4	Index	13
254.0350000000000	0	n/a	152422	KeyDown	41324	1	Little	13
254.8650000000000	0	n/a	152920	KeyDown	41324	3	Middle	13
255.1350000000000	0	n/a	153082	KeyDown	41324	2	Ring	13
255.4316666666667	0	n/a	153260	KeyDown	41324	4	Index	13
255.8350000000000	0	n/a	153502	KeyDown	41324	4	Index	13
256.0833333333334	0	n/a	153651	KeyDown	41324	1	Little	13
256.5333333333334	0	n/a	153921	KeyDown	41324	3	Middle	13
256.7966666666667	0	n/a	154079	KeyDown	41324	2	Ring	13
257.0450000000000	0	n/a	154228	KeyDown	41324	4	Index	13
257.5383333333334	0	n/a	154524	KeyDown	41324	4	Index	13
258.0783333333334	0	n/a	154848	KeyDown	41324	1	Little	13
259.2950000000000	0	n/a	155578	StopPractice	41324	n/a	n/a	13
259.2966666666667	0	n/a	155579	StartRest	XXXXX	n/a	n/a	13
269.3300000000000	0	n/a	161599	StopRest	XXXXX	n/a	n/a	13
269.3316666666667	0	UPPT001	161600	StartPractice	41324	n/a	n/a	14
269.9183333333334	0	n/a	161952	KeyDown	41324	4	Index	14
270.2550000000000	0	n/a	162154	KeyDown	41324	1	Little	14
270.7366666666667	0	n/a	162443	KeyDown	41324	3	Middle	14
271.0316666666667	0	n/a	162620	KeyDown	41324	2	Ring	14
271.3466666666667	0	n/a	162809	KeyDown	41324	4	Index	14
271.7983333333333	0	n/a	163080	KeyDown	41324	4	Index	14
272.1433333333334	0	n/a	163287	KeyDown	41324	1	Little	14
272.8483333333334	0	n/a	163710	KeyDown	41324	3	Middle	14
273.1166666666667	0	n/a	163871	KeyDown	41324	2	Ring	14
273.3150000000000	0	n/a	163990	KeyDown	41324	4	Index	14
273.8233333333333	0	n/a	164295	KeyDown	41324	4	Index	14
274.1533333333334	0	n/a	164493	KeyDown	41324	1	Little	14
274.8700000000000	0	n/a	164923	KeyDown	41324	3	Middle	14
275.1116666666667	0	n/a	165068	KeyDown	41324	2	Ring	14
275.2800000000000	0	n/a	165169	KeyDown	41324	4	Index	14
275.8150000000000	0	n/a	165490	KeyDown	41324	4	Index	14
276.0466666666667	0	n/a	165629	KeyDown	41324	1	Little	14
276.4350000000000	0	n/a	165862	KeyDown	41324	4	Index	14
277.0650000000000	0	n/a	166240	KeyDown	41324	3	Middle	14
277.3100000000000	0	n/a	166387	KeyDown	41324	2	Ring	14
277.5516666666667	0	n/a	166532	KeyDown	41324	4	Index	14
277.8850000000000	0	n/a	166732	KeyDown	41324	4	Index	14
278.2966666666667	0	n/a	166979	KeyDown	41324	1	Little	14
278.7000000000000	0	n/a	167221	KeyDown	41324	3	Middle	14
279.0066666666667	0	n/a	167405	KeyDown	41324	2	Ring	14
279.2033333333334	0	n/a	167523	KeyDown	41324	3	Middle	14
279.2433333333333	0	n/a	167547	KeyDown	41324	4	Index	14
279.3700000000000	0	n/a	167623	StopPractice	41324	n/a	n/a	14
279.3716666666667	0	n/a	167624	StartRest	XXXXX	n/a	n/a	14
289.4066666666667	0	n/a	173645	StopRest	XXXXX	n/a	n/a	14
289.4083333333334	0	UPPT001	173646	StartPractice	41324	n/a	n/a	15
289.8466666666667	0	n/a	173909	KeyDown	41324	4	Index	15
290.2116666666667	0	n/a	174128	KeyDown	41324	1	Little	15
290.9366666666667	0	n/a	174563	KeyDown	41324	3	Middle	15
291.2183333333334	0	n/a	174732	KeyDown	41324	2	Ring	15
291.4000000000000	0	n/a	174841	KeyDown	41324	4	Index	15
291.8400000000000	0	n/a	175105	KeyDown	41324	4	Index	15
292.2333333333333	0	n/a	175341	KeyDown	41324	1	Little	15
293.1216666666667	0	n/a	175874	KeyDown	41324	3	Middle	15
293.3950000000000	0	n/a	176038	KeyDown	41324	2	Ring	15
293.6366666666667	0	n/a	176183	KeyDown	41324	4	Index	15
294.0500000000000	0	n/a	176431	KeyDown	41324	4	Index	15
294.4533333333334	0	n/a	176673	KeyDown	41324	1	Little	15
295.0733333333334	0	n/a	177045	KeyDown	41324	3	Middle	15
295.3716666666667	0	n/a	177224	KeyDown	41324	2	Ring	15
295.6666666666667	0	n/a	177401	KeyDown	41324	4	Index	15
296.1683333333334	0	n/a	177702	KeyDown	41324	4	Index	15
296.6016666666667	0	n/a	177962	KeyDown	41324	1	Little	15
297.2566666666667	0	n/a	178355	KeyDown	41324	3	Middle	15
297.4866666666667	0	n/a	178493	KeyDown	41324	2	Ring	15
297.6550000000000	0	n/a	178594	KeyDown	41324	4	Index	15
298.1700000000000	0	n/a	178903	KeyDown	41324	4	Index	15
298.4600000000000	0	n/a	179077	KeyDown	41324	1	Little	15
298.8716666666667	0	n/a	179324	KeyDown	41324	3	Middle	15
299.0833333333334	0	n/a	179451	KeyDown	41324	2	Ring	15
299.2650000000000	0	n/a	179560	KeyDown	41324	4	Index	15
299.4466666666667	0	n/a	179669	StopPractice	41324	n/a	n/a	15
299.4483333333334	0	n/a	179670	StartRest	XXXXX	n/a	n/a	15
309.4800000000000	0	n/a	185689	StopRest	XXXXX	n/a	n/a	15
309.4816666666667	0	UPPT001	185690	StartPractice	41324	n/a	n/a	16
309.9533333333334	0	n/a	185973	KeyDown	41324	4	Index	16
310.3116666666667	0	n/a	186188	KeyDown	41324	1	Little	16
310.9583333333334	0	n/a	186576	KeyDown	41324	3	Middle	16
311.1883333333333	0	n/a	186714	KeyDown	41324	2	Ring	16
311.4383333333333	0	n/a	186864	KeyDown	41324	4	Index	16
311.9283333333333	0	n/a	187158	KeyDown	41324	4	Index	16
312.2783333333334	0	n/a	187368	KeyDown	41324	1	Little	16
313.3400000000000	0	n/a	188005	KeyDown	41324	3	Middle	16
313.6350000000000	0	n/a	188182	KeyDown	41324	2	Ring	16
313.8833333333333	0	n/a	188331	KeyDown	41324	4	Index	16
314.3383333333334	0	n/a	188604	KeyDown	41324	4	Index	16
314.6966666666667	0	n/a	188819	KeyDown	41324	1	Little	16
315.3233333333334	0	n/a	189195	KeyDown	41324	3	Middle	16
315.5950000000000	0	n/a	189358	KeyDown	41324	2	Ring	16
315.7666666666667	0	n/a	189461	KeyDown	41324	4	Index	16
316.2450000000000	0	n/a	189748	KeyDown	41324	4	Index	16
316.6650000000000	0	n/a	190000	KeyDown	41324	1	Little	16
317.2750000000000	0	n/a	190366	KeyDown	41324	3	Middle	16
317.5183333333334	0	n/a	190512	KeyDown	41324	2	Ring	16
317.7550000000000	0	n/a	190654	KeyDown	41324	4	Index	16
318.1966666666667	0	n/a	190919	KeyDown	41324	4	Index	16
318.5233333333334	0	n/a	191115	KeyDown	41324	1	Little	16
319.0050000000000	0	n/a	191404	KeyDown	41324	3	Middle	16
319.1800000000000	0	n/a	191509	KeyDown	41324	2	Ring	16
319.3633333333333	0	n/a	191619	KeyDown	41324	4	Index	16
319.5200000000000	0	n/a	191713	StopPractice	41324	n/a	n/a	16
319.5216666666667	0	n/a	191714	StartRest	XXXXX	n/a	n/a	16
329.5550000000000	0	n/a	197734	StopRest	XXXXX	n/a	n/a	16
329.5566666666667	0	UPPT001	197735	StartPractice	41324	n/a	n/a	17
329.9866666666667	0	n/a	197993	KeyDown	41324	4	Index	17
330.4050000000000	0	n/a	198244	KeyDown	41324	1	Little	17
330.7383333333333	0	n/a	198444	KeyDown	41324	3	Middle	17
331.0650000000000	0	n/a	198640	KeyDown	41324	2	Ring	17
331.2500000000000	0	n/a	198751	KeyDown	41324	4	Index	17
331.7600000000000	0	n/a	199057	KeyDown	41324	4	Index	17
332.0950000000000	0	n/a	199258	KeyDown	41324	1	Little	17
332.5883333333334	0	n/a	199554	KeyDown	41324	3	Middle	17
332.8116666666667	0	n/a	199688	KeyDown	41324	2	Ring	17
332.9800000000000	0	n/a	199789	KeyDown	41324	4	Index	17
333.4883333333333	0	n/a	200094	KeyDown	41324	4	Index	17
333.8750000000000	0	n/a	200326	KeyDown	41324	1	Little	17
334.3133333333333	0	n/a	200589	KeyDown	41324	3	Middle	17
334.5000000000000	0	n/a	200701	KeyDown	41324	2	Ring	17
334.6583333333334	0	n/a	200796	KeyDown	41324	4	Index	17
335.2850000000000	0	n/a	201172	KeyDown	41324	4	Index	17
335.6500000000000	0	n/a	201391	KeyDown	41324	1	Little	17
336.1650000000000	0	n/a	201700	KeyDown	41324	3	Middle	17
336.3316666666667	0	n/a	201800	KeyDown	41324	2	Ring	17
336.5333333333334	0	n/a	201921	KeyDown	41324	4	Index	17
336.9750000000000	0	n/a	202186	KeyDown	41324	4	Index	17
337.3050000000000	0	n/a	202384	KeyDown	41324	1	Little	17
337.8700000000000	0	n/a	202723	KeyDown	41324	3	Middle	17
338.0366666666667	0	n/a	202823	KeyDown	41324	2	Ring	17
338.2633333333334	0	n/a	202959	KeyDown	41324	4	Index	17
338.6883333333333	0	n/a	203214	KeyDown	41324	4	Index	17
339.0650000000000	0	n/a	203440	KeyDown	41324	1	Little	17
339.5333333333334	0	n/a	203721	KeyDown	41324	3	Middle	17
339.5950000000000	0	n/a	203758	StopPractice	41324	n/a	n/a	17
339.5966666666667	0	n/a	203759	StartRest	XXXXX	n/a	n/a	17
349.6300000000000	0	n/a	209779	StopRest	XXXXX	n/a	n/a	17
349.6316666666667	0	UPPT001	209780	StartPractice	41324	n/a	n/a	18
350.1766666666667	0	n/a	210107	KeyDown	41324	4	Index	18
350.5033333333333	0	n/a	210303	KeyDown	41324	1	Little	18
350.9050000000000	0	n/a	210544	KeyDown	41324	3	Middle	18
351.0700000000001	0	n/a	210643	KeyDown	41324	2	Ring	18
351.1933333333333	0	n/a	210717	KeyDown	41324	4	Index	18
351.6183333333333	0	n/a	210972	KeyDown	41324	4	Index	18
351.8900000000000	0	n/a	211135	KeyDown	41324	1	Little	18
352.2483333333333	0	n/a	211350	KeyDown	41324	3	Middle	18
352.3700000000000	0	n/a	211423	KeyDown	41324	2	Ring	18
352.5200000000000	0	n/a	211513	KeyDown	41324	4	Index	18
352.9866666666667	0	n/a	211793	KeyDown	41324	4	Index	18
353.4466666666667	0	n/a	212069	KeyDown	41324	1	Little	18
353.8300000000000	0	n/a	212299	KeyDown	41324	3	Middle	18
353.9733333333334	0	n/a	212385	KeyDown	41324	2	Ring	18
354.2633333333334	0	n/a	212559	KeyDown	41324	4	Index	18
354.6183333333333	0	n/a	212772	KeyDown	41324	4	Index	18
354.8650000000000	0	n/a	212920	KeyDown	41324	1	Little	18
355.3600000000000	0	n/a	213217	KeyDown	41324	3	Middle	18
355.5850000000000	0	n/a	213352	KeyDown	41324	2	Ring	18
355.8066666666667	0	n/a	213485	KeyDown	41324	4	Index	18
356.1900000000000	0	n/a	213715	KeyDown	41324	4	Index	18
356.8833333333334	0	n/a	214131	KeyDown	41324	1	Little	18
357.3116666666667	0	n/a	214388	KeyDown	41324	3	Middle	18
357.5350000000000	0	n/a	214522	KeyDown	41324	2	Ring	18
357.7050000000000	0	n/a	214624	KeyDown	41324	4	Index	18
358.0550000000000	0	n/a	214834	KeyDown	41324	4	Index	18
358.2900000000000	0	n/a	214975	KeyDown	41324	1	Little	18
358.6483333333334	0	n/a	215190	KeyDown	41324	3	Middle	18
358.8050000000000	0	n/a	215284	KeyDown	41324	2	Ring	18
359.0050000000000	0	n/a	215404	KeyDown	41324	4	Index	18
359.4050000000000	0	n/a	215644	KeyDown	41324	4	Index	18
359.6700000000000	0	n/a	215803	StopPractice	41324	n/a	n/a	18
359.6716666666667	0	n/a	215804	StartRest	XXXXX	n/a	n/a	18
369.7050000000000	0	n/a	221824	StopRest	XXXXX	n/a	n/a	18
369.7066666666667	0	UPPT001	221825	StartPractice	41324	n/a	n/a	19
370.2733333333334	0	n/a	222165	KeyDown	41324	4	Index	19
370.6300000000000	0	n/a	222379	KeyDown	41324	1	Little	19
371.0333333333334	0	n/a	222621	KeyDown	41324	3	Middle	19
371.1950000000001	0	n/a	222718	KeyDown	41324	2	Ring	19
371.4033333333334	0	n/a	222843	KeyDown	41324	4	Index	19
371.7850000000000	0	n/a	223072	KeyDown	41324	4	Index	19
372.0650000000000	0	n/a	223240	KeyDown	41324	1	Little	19
372.4700000000000	0	n/a	223483	KeyDown	41324	3	Middle	19
372.6300000000001	0	n/a	223579	KeyDown	41324	2	Ring	19
372.7716666666667	0	n/a	223664	KeyDown	41324	4	Index	19
373.2133333333334	0	n/a	223929	KeyDown	41324	4	Index	19
373.5433333333334	0	n/a	224127	KeyDown	41324	1	Little	19
374.0033333333333	0	n/a	224403	KeyDown	41324	3	Middle	19
374.1850000000000	0	n/a	224512	KeyDown	41324	2	Ring	19
374.3200000000001	0	n/a	224593	KeyDown	41324	4	Index	19
374.7433333333333	0	n/a	224847	KeyDown	41324	4	Index	19
375.1633333333334	0	n/a	225099	KeyDown	41324	1	Little	19
375.5500000000000	0	n/a	225331	KeyDown	41324	3	Middle	19
375.7283333333334	0	n/a	225438	KeyDown	41324	2	Ring	19
375.9300000000000	0	n/a	225559	KeyDown	41324	4	Index	19
376.2900000000000	0	n/a	225775	KeyDown	41324	4	Index	19
376.8083333333333	0	n/a	226086	KeyDown	41324	1	Little	19
377.2216666666667	0	n/a	226334	KeyDown	41324	3	Middle	19
377.3883333333334	0	n/a	226434	KeyDown	41324	2	Ring	19
377.6300000000001	0	n/a	226579	KeyDown	41324	4	Index	19
378.0250000000000	0	n/a	226816	KeyDown	41324	4	Index	19
378.6233333333333	0	n/a	227175	KeyDown	41324	1	Little	19
379.0883333333334	0	n/a	227454	KeyDown	41324	3	Middle	19
379.2283333333334	0	n/a	227538	KeyDown	41324	2	Ring	19
379.3883333333334	0	n/a	227634	KeyDown	41324	1	Little	19
379.6800000000000	0	n/a	227809	KeyDown	41324	4	Index	19
379.7450000000000	0	n/a	227848	StopPractice	41324	n/a	n/a	19
379.7466666666667	0	n/a	227849	StartRest	XXXXX	n/a	n/a	19
389.7800000000000	0	n/a	233869	StopRest	XXXXX	n/a	n/a	19
389.7816666666667	0	UPPT001	233870	StartPractice	41324	n/a	n/a	20
390.2450000000000	0	n/a	234148	KeyDown	41324	4	Index	20
390.5633333333333	0	n/a	234339	KeyDown	41324	1	Little	20
390.9450000000001	0	n/a	234568	KeyDown	41324	3	Middle	20
391.1033333333334	0	n/a	234663	KeyDown	41324	2	Ring	20
391.2233333333334	0	n/a	234735	KeyDown	41324	4	Index	20
391.6050000000000	0	n/a	234964	KeyDown	41324	4	Index	20
391.9150000000000	0	n/a	235150	KeyDown	41324	1	Little	20
392.2100000000000	0	n/a	235327	KeyDown	41324	3	Middle	20
392.3350000000000	0	n/a	235402	KeyDown	41324	2	Ring	20
392.4933333333333	0	n/a	235497	KeyDown	41324	4	Index	20
393.0600000000000	0	n/a	235837	KeyDown	41324	4	Index	20
393.4950000000000	0	n/a	236098	KeyDown	41324	1	Little	20
394.0850000000000	0	n/a	236452	KeyDown	41324	3	Middle	20
394.1933333333334	0	n/a	236517	KeyDown	41324	2	Ring	20
394.3500000000000	0	n/a	236611	KeyDown	41324	4	Index	20
394.8416666666667	0	n/a	236906	KeyDown	41324	4	Index	20
395.1900000000000	0	n/a	237115	KeyDown	41324	1	Little	20
396.2000000000000	0	n/a	237721	KeyDown	41324	3	Middle	20
396.3433333333334	0	n/a	237807	KeyDown	41324	2	Ring	20
396.5416666666667	0	n/a	237926	KeyDown	41324	4	Index	20
396.7750000000000	0	n/a	238066	KeyDown	41324	4	Index	20
397.4850000000000	0	n/a	238492	KeyDown	41324	1	Little	20
398.0783333333334	0	n/a	238848	KeyDown	41324	3	Middle	20
398.1800000000000	0	n/a	238909	KeyDown	41324	2	Ring	20
398.5166666666667	0	n/a	239111	KeyDown	41324	4	Index	20
399.0100000000000	0	n/a	239407	KeyDown	41324	4	Index	20
399.4300000000000	0	n/a	239659	KeyDown	41324	1	Little	20
399.8200000000001	0	n/a	239893	StopPractice	41324	n/a	n/a	20
399.8216666666667	0	n/a	239894	StartRest	XXXXX	n/a	n/a	20
409.8533333333334	0	n/a	245913	StopRest	XXXXX	n/a	n/a	20
409.8550000000000	0	UPPT001	245914	StartPractice	41324	n/a	n/a	21
410.3916666666667	0	n/a	246236	KeyDown	41324	4	Index	21
410.7416666666667	0	n/a	246446	KeyDown	41324	1	Little	21
411.1050000000000	0	n/a	246664	KeyDown	41324	3	Middle	21
411.2100000000000	0	n/a	246727	KeyDown	41324	2	Ring	21
411.6666666666667	0	n/a	247001	KeyDown	41324	4	Index	21
412.0650000000001	0	n/a	247240	KeyDown	41324	4	Index	21
412.3300000000000	0	n/a	247399	KeyDown	41324	1	Little	21
412.6983333333334	0	n/a	247620	KeyDown	41324	3	Middle	21
412.8133333333333	0	n/a	247689	KeyDown	41324	2	Ring	21
413.0116666666667	0	n/a	247808	KeyDown	41324	4	Index	21
414.0583333333333	0	n/a	248436	KeyDown	41324	4	Index	21
414.4033333333334	0	n/a	248643	KeyDown	41324	1	Little	21
414.8066666666667	0	n/a	248885	KeyDown	41324	3	Middle	21
414.8966666666667	0	n/a	248939	KeyDown	41324	2	Ring	21
415.3100000000000	0	n/a	249187	KeyDown	41324	4	Index	21
415.8166666666667	0	n/a	249491	KeyDown	41324	4	Index	21
416.1300000000001	0	n/a	249679	KeyDown	41324	1	Little	21
416.5616666666667	0	n/a	249938	KeyDown	41324	3	Middle	21
416.5900000000000	0	n/a	249955	KeyDown	41324	2	Ring	21
417.2466666666667	0	n/a	250349	KeyDown	41324	4	Index	21
417.8316666666667	0	n/a	250700	KeyDown	41324	4	Index	21
418.2316666666667	0	n/a	250940	KeyDown	41324	1	Little	21
418.8500000000000	0	n/a	251311	KeyDown	41324	3	Middle	21
419.0633333333333	0	n/a	251439	KeyDown	41324	2	Ring	21
419.5433333333334	0	n/a	251727	KeyDown	41324	4	Index	21
419.8933333333334	0	n/a	251937	StopPractice	41324	n/a	n/a	21
419.8950000000000	0	n/a	251938	StartRest	XXXXX	n/a	n/a	21
429.9300000000000	0	n/a	257959	StopRest	XXXXX	n/a	n/a	21
429.9316666666667	0	UPPT001	257960	StartPractice	41324	n/a	n/a	22
430.3833333333334	0	n/a	258231	KeyDown	41324	4	Index	22
430.7100000000000	0	n/a	258427	KeyDown	41324	1	Little	22
431.1250000000000	0	n/a	258676	KeyDown	41324	3	Middle	22
431.2866666666667	0	n/a	258773	KeyDown	41324	2	Ring	22
431.6383333333334	0	n/a	258984	KeyDown	41324	4	Index	22
432.1333333333334	0	n/a	259281	KeyDown	41324	4	Index	22
432.4300000000000	0	n/a	259459	KeyDown	41324	1	Little	22
432.7633333333334	0	n/a	259659	KeyDown	41324	3	Middle	22
432.8950000000000	0	n/a	259738	KeyDown	41324	2	Ring	22
433.2850000000000	0	n/a	259972	KeyDown	41324	4	Index	22
433.7500000000000	0	n/a	260251	KeyDown	41324	4	Index	22
434.0833333333334	0	n/a	260451	KeyDown	41324	1	Little	22
434.4800000000000	0	n/a	260689	KeyDown	41324	3	Middle	22
434.6233333333333	0	n/a	260775	KeyDown	41324	2	Ring	22
435.0483333333333	0	n/a	261030	KeyDown	41324	4	Index	22
435.5183333333334	0	n/a	261312	KeyDown	41324	4	Index	22
435.8200000000001	0	n/a	261493	KeyDown	41324	1	Little	22
436.2250000000000	0	n/a	261736	KeyDown	41324	3	Middle	22
436.3533333333334	0	n/a	261813	KeyDown	41324	2	Ring	22
436.7150000000000	0	n/a	262030	KeyDown	41324	4	Index	22
437.3716666666667	0	n/a	262424	KeyDown	41324	4	Index	22
437.6700000000000	0	n/a	262603	KeyDown	41324	1	Little	22
438.0966666666667	0	n/a	262859	KeyDown	41324	4	Index	22
438.9883333333333	0	n/a	263394	KeyDown	41324	3	Middle	22
439.1533333333334	0	n/a	263493	KeyDown	41324	2	Ring	22
439.5366666666667	0	n/a	263723	KeyDown	41324	4	Index	22
439.9700000000000	0	n/a	263983	StopPractice	41324	n/a	n/a	22
439.9716666666667	0	n/a	263984	StartRest	XXXXX	n/a	n/a	22
450.0033333333334	0	n/a	270003	StopRest	XXXXX	n/a	n/a	22
450.0050000000001	0	UPPT001	270004	StartPractice	41324	n/a	n/a	23
450.4733333333334	0	n/a	270285	KeyDown	41324	4	Index	23
450.7583333333334	0	n/a	270456	KeyDown	41324	1	Little	23
451.1633333333334	0	n/a	270699	KeyDown	41324	3	Middle	23
451.3100000000000	0	n/a	270787	KeyDown	41324	2	Ring	23
451.6116666666667	0	n/a	270968	KeyDown	41324	4	Index	23
451.9633333333334	0	n/a	271179	KeyDown	41324	4	Index	23
452.3433333333334	0	n/a	271407	KeyDown	41324	1	Little	23
452.7233333333334	0	n/a	271635	KeyDown	41324	3	Middle	23
452.8566666666667	0	n/a	271715	KeyDown	41324	2	Ring	23
453.2666666666667	0	n/a	271961	KeyDown	41324	4	Index	23
453.7616666666667	0	n/a	272258	KeyDown	41324	4	Index	23
454.2050000000000	0	n/a	272524	KeyDown	41324	1	Little	23
454.6433333333334	0	n/a	272787	KeyDown	41324	3	Middle	23
454.7516666666667	0	n/a	272852	KeyDown	41324	2	Ring	23
455.1583333333334	0	n/a	273096	KeyDown	41324	4	Index	23
455.6183333333333	0	n/a	273372	KeyDown	41324	4	Index	23
455.9566666666667	0	n/a	273575	KeyDown	41324	1	Little	23
456.5733333333334	0	n/a	273945	KeyDown	41324	3	Middle	23
456.6466666666667	0	n/a	273989	KeyDown	41324	2	Ring	23
457.1500000000000	0	n/a	274291	KeyDown	41324	4	Index	23
457.5183333333334	0	n/a	274512	KeyDown	41324	4	Index	23
457.7700000000000	0	n/a	274663	KeyDown	41324	1	Little	23
458.1066666666667	0	n/a	274865	KeyDown	41324	3	Middle	23
458.1966666666667	0	n/a	274919	KeyDown	41324	2	Ring	23
458.5866666666667	0	n/a	275153	KeyDown	41324	4	Index	23
458.9233333333333	0	n/a	275355	KeyDown	41324	4	Index	23
459.2750000000000	0	n/a	275566	KeyDown	41324	1	Little	23
459.6150000000000	0	n/a	275770	KeyDown	41324	3	Middle	23
459.7866666666667	0	n/a	275873	KeyDown	41324	2	Ring	23
460.0433333333334	0	n/a	276027	StopPractice	41324	n/a	n/a	23
460.0450000000000	0	n/a	276028	StartRest	XXXXX	n/a	n/a	23
470.0783333333334	0	n/a	282048	StopRest	XXXXX	n/a	n/a	23
470.0800000000000	0	UPPT001	282049	StartPractice	41324	n/a	n/a	24
470.5766666666667	0	n/a	282347	KeyDown	41324	4	Index	24
470.8983333333334	0	n/a	282540	KeyDown	41324	1	Little	24
471.2983333333333	0	n/a	282780	KeyDown	41324	3	Middle	24
471.4500000000000	0	n/a	282871	KeyDown	41324	2	Ring	24
471.8083333333333	0	n/a	283086	KeyDown	41324	4	Index	24
472.1900000000001	0	n/a	283315	KeyDown	41324	4	Index	24
472.4666666666667	0	n/a	283481	KeyDown	41324	1	Little	24
472.8133333333334	0	n/a	283689	KeyDown	41324	3	Middle	24
472.9066666666667	0	n/a	283745	KeyDown	41324	2	Ring	24
473.2866666666667	0	n/a	283973	KeyDown	41324	4	Index	24
473.7283333333334	0	n/a	284238	KeyDown	41324	4	Index	24
474.0516666666667	0	n/a	284432	KeyDown	41324	1	Little	24
474.5066666666667	0	n/a	284705	KeyDown	41324	3	Middle	24
474.6033333333334	0	n/a	284763	KeyDown	41324	2	Ring	24
475.0800000000000	0	n/a	285049	KeyDown	41324	4	Index	24
475.7083333333334	0	n/a	285426	KeyDown	41324	4	Index	24
476.0516666666667	0	n/a	285632	KeyDown	41324	1	Little	24
476.4316666666667	0	n/a	285860	KeyDown	41324	3	Middle	24
476.5083333333334	0	n/a	285906	KeyDown	41324	2	Ring	24
476.9333333333333	0	n/a	286161	KeyDown	41324	4	Index	24
477.3633333333333	0	n/a	286419	KeyDown	41324	4	Index	24
477.6833333333333	0	n/a	286611	KeyDown	41324	1	Little	24
478.1550000000000	0	n/a	286894	KeyDown	41324	3	Middle	24
478.2450000000000	0	n/a	286948	KeyDown	41324	2	Ring	24
478.6766666666667	0	n/a	287207	KeyDown	41324	4	Index	24
479.0783333333334	0	n/a	287448	KeyDown	41324	4	Index	24
479.3816666666667	0	n/a	287630	KeyDown	41324	1	Little	24
479.7016666666667	0	n/a	287822	KeyDown	41324	3	Middle	24
479.8283333333334	0	n/a	287898	KeyDown	41324	2	Ring	24
480.1183333333333	0	n/a	288072	StopPractice	41324	n/a	n/a	24
480.1200000000000	0	n/a	288073	StartRest	XXXXX	n/a	n/a	24
490.1550000000000	0	n/a	294094	StopRest	XXXXX	n/a	n/a	24
490.1566666666667	0	UPPT001	294095	StartPractice	41324	n/a	n/a	25
490.5883333333334	0	n/a	294354	KeyDown	41324	4	Index	25
490.9083333333334	0	n/a	294546	KeyDown	41324	1	Little	25
491.2916666666667	0	n/a	294776	KeyDown	41324	3	Middle	25
491.4283333333333	0	n/a	294858	KeyDown	41324	2	Ring	25
491.7900000000000	0	n/a	295075	KeyDown	41324	4	Index	25
492.1833333333333	0	n/a	295311	KeyDown	41324	4	Index	25
492.5166666666667	0	n/a	295511	KeyDown	41324	1	Little	25
492.8683333333333	0	n/a	295722	KeyDown	41324	3	Middle	25
493.0100000000000	0	n/a	295807	KeyDown	41324	2	Ring	25
493.3616666666667	0	n/a	296018	KeyDown	41324	4	Index	25
493.8216666666667	0	n/a	296294	KeyDown	41324	4	Index	25
494.1350000000000	0	n/a	296482	KeyDown	41324	1	Little	25
494.5933333333334	0	n/a	296757	KeyDown	41324	3	Middle	25
494.7733333333334	0	n/a	296865	KeyDown	41324	2	Ring	25
495.1433333333334	0	n/a	297087	KeyDown	41324	4	Index	25
495.6066666666667	0	n/a	297365	KeyDown	41324	4	Index	25
495.9016666666667	0	n/a	297542	KeyDown	41324	1	Little	25
496.2650000000000	0	n/a	297760	KeyDown	41324	3	Middle	25
496.3716666666667	0	n/a	297824	KeyDown	41324	2	Ring	25
496.8183333333334	0	n/a	298092	KeyDown	41324	4	Index	25
497.2000000000000	0	n/a	298321	KeyDown	41324	4	Index	25
497.6783333333333	0	n/a	298608	KeyDown	41324	1	Little	25
498.0300000000000	0	n/a	298819	KeyDown	41324	3	Middle	25
498.1383333333334	0	n/a	298884	KeyDown	41324	2	Ring	25
498.5583333333333	0	n/a	299136	KeyDown	41324	4	Index	25
498.9700000000000	0	n/a	299383	KeyDown	41324	4	Index	25
499.4050000000000	0	n/a	299644	KeyDown	41324	1	Little	25
499.7733333333334	0	n/a	299865	KeyDown	41324	3	Middle	25
499.8616666666667	0	n/a	299918	KeyDown	41324	2	Ring	25
500.1950000000001	0	n/a	300118	StopPractice	41324	n/a	n/a	25
500.1966666666667	0	n/a	300119	StartRest	XXXXX	n/a	n/a	25
510.2283333333334	0	n/a	306138	StopRest	XXXXX	n/a	n/a	25
510.2300000000000	0	UPPT001	306139	StartPractice	41324	n/a	n/a	26
510.8583333333333	0	n/a	306516	KeyDown	41324	4	Index	26
511.1416666666667	0	n/a	306686	KeyDown	41324	1	Little	26
511.4766666666667	0	n/a	306887	KeyDown	41324	3	Middle	26
511.6066666666667	0	n/a	306965	KeyDown	41324	2	Ring	26
511.8166666666667	0	n/a	307091	KeyDown	41324	4	Index	26
512.2300000000000	0	n/a	307339	KeyDown	41324	4	Index	26
512.5016666666667	0	n/a	307502	KeyDown	41324	1	Little	26
513.1816666666667	0	n/a	307910	KeyDown	41324	3	Middle	26
513.3083333333334	0	n/a	307986	KeyDown	41324	2	Ring	26
513.6316666666667	0	n/a	308180	KeyDown	41324	4	Index	26
513.9650000000000	0	n/a	308380	KeyDown	41324	4	Index	26
514.3516666666667	0	n/a	308612	KeyDown	41324	1	Little	26
514.7200000000000	0	n/a	308833	KeyDown	41324	3	Middle	26
514.8433333333334	0	n/a	308907	KeyDown	41324	2	Ring	26
515.1416666666667	0	n/a	309086	KeyDown	41324	4	Index	26
515.5316666666668	0	n/a	309320	KeyDown	41324	4	Index	26
515.8466666666667	0	n/a	309509	KeyDown	41324	1	Little	26
516.4883333333333	0	n/a	309894	KeyDown	41324	3	Middle	26
516.7483333333333	0	n/a	310050	KeyDown	41324	2	Ring	26
516.7500000000000	0	n/a	310051	KeyDown	41324	3	Middle	26
517.1433333333333	0	n/a	310287	KeyDown	41324	4	Index	26
517.5883333333334	0	n/a	310554	KeyDown	41324	4	Index	26
517.9100000000001	0	n/a	310747	KeyDown	41324	1	Little	26
518.3266666666667	0	n/a	310997	KeyDown	41324	3	Middle	26
518.3866666666667	0	n/a	311033	KeyDown	41324	2	Ring	26
518.7766666666668	0	n/a	311267	KeyDown	41324	4	Index	26
519.2116666666667	0	n/a	311528	KeyDown	41324	4	Index	26
519.5400000000001	0	n/a	311725	KeyDown	41324	1	Little	26
519.9733333333334	0	n/a	311985	KeyDown	41324	3	Middle	26
520.1633333333334	0	n/a	312099	KeyDown	41324	2	Ring	26
520.2683333333333	0	n/a	312162	StopPractice	41324	n/a	n/a	26
520.2700000000000	0	n/a	312163	StartRest	XXXXX	n/a	n/a	26
530.3033333333334	0	n/a	318183	StopRest	XXXXX	n/a	n/a	26
530.3050000000001	0	UPPT001	318184	StartPractice	41324	n/a	n/a	27
530.7283333333334	0	n/a	318438	KeyDown	41324	4	Index	27
531.0216666666666	0	n/a	318614	KeyDown	41324	1	Little	27
531.1450000000000	0	n/a	318688	KeyDown	41324	2	Ring	27
531.7250000000000	0	n/a	319036	KeyDown	41324	3	Middle	27
531.8566666666667	0	n/a	319115	KeyDown	41324	2	Ring	27
532.1466666666666	0	n/a	319289	KeyDown	41324	4	Index	27
532.4816666666667	0	n/a	319490	KeyDown	41324	4	Index	27
532.8016666666667	0	n/a	319682	KeyDown	41324	1	Little	27
533.1416666666667	0	n/a	319886	KeyDown	41324	3	Middle	27
533.2166666666667	0	n/a	319931	KeyDown	41324	2	Ring	27
533.6033333333334	0	n/a	320163	KeyDown	41324	4	Index	27
533.9966666666667	0	n/a	320399	KeyDown	41324	4	Index	27
534.3933333333333	0	n/a	320637	KeyDown	41324	1	Little	27
534.7150000000000	0	n/a	320830	KeyDown	41324	3	Middle	27
534.8616666666667	0	n/a	320918	KeyDown	41324	2	Ring	27
535.2166666666667	0	n/a	321131	KeyDown	41324	4	Index	27
535.2683333333333	0	n/a	321162	KeyDown	41324	4	Index	27
535.6833333333334	0	n/a	321411	KeyDown	41324	4	Index	27
535.9933333333333	0	n/a	321597	KeyDown	41324	1	Little	27
536.3883333333333	0	n/a	321834	KeyDown	41324	3	Middle	27
536.4983333333333	0	n/a	321900	KeyDown	41324	2	Ring	27
536.8550000000000	0	n/a	322114	KeyDown	41324	4	Index	27
537.2083333333334	0	n/a	322326	KeyDown	41324	4	Index	27
537.4833333333333	0	n/a	322491	KeyDown	41324	1	Little	27
538.4016666666668	0	n/a	323042	KeyDown	41324	3	Middle	27
538.4833333333333	0	n/a	323091	KeyDown	41324	2	Ring	27
538.9133333333334	0	n/a	323349	KeyDown	41324	4	Index	27
539.2333333333333	0	n/a	323541	KeyDown	41324	4	Index	27
539.5500000000001	0	n/a	323731	KeyDown	41324	1	Little	27
539.8783333333333	0	n/a	323928	KeyDown	41324	3	Middle	27
539.9883333333333	0	n/a	323994	KeyDown	41324	2	Ring	27
540.2116666666667	0	n/a	324128	KeyDown	41324	4	Index	27
540.3433333333334	0	n/a	324207	StopPractice	41324	n/a	n/a	27
540.3450000000000	0	n/a	324208	StartRest	XXXXX	n/a	n/a	27
550.3783333333333	0	n/a	330228	StopRest	XXXXX	n/a	n/a	27
550.3800000000000	0	UPPT001	330229	StartPractice	41324	n/a	n/a	28
550.8683333333333	0	n/a	330522	KeyDown	41324	4	Index	28
551.2183333333334	0	n/a	330732	KeyDown	41324	1	Little	28
551.5750000000000	0	n/a	330946	KeyDown	41324	3	Middle	28
551.6916666666667	0	n/a	331016	KeyDown	41324	2	Ring	28
551.9066666666668	0	n/a	331145	KeyDown	41324	4	Index	28
552.3350000000000	0	n/a	331402	KeyDown	41324	4	Index	28
552.6933333333334	0	n/a	331617	KeyDown	41324	1	Little	28
553.0633333333334	0	n/a	331839	KeyDown	41324	3	Middle	28
553.1950000000001	0	n/a	331918	KeyDown	41324	2	Ring	28
553.5233333333333	0	n/a	332115	KeyDown	41324	4	Index	28
553.8633333333333	0	n/a	332319	KeyDown	41324	4	Index	28
554.6066666666667	0	n/a	332765	KeyDown	41324	1	Little	28
555.0116666666667	0	n/a	333008	KeyDown	41324	3	Middle	28
555.1733333333334	0	n/a	333105	KeyDown	41324	2	Ring	28
555.3916666666667	0	n/a	333236	KeyDown	41324	4	Index	28
555.7983333333334	0	n/a	333480	KeyDown	41324	4	Index	28
556.1916666666667	0	n/a	333716	KeyDown	41324	1	Little	28
556.5083333333333	0	n/a	333906	KeyDown	41324	3	Middle	28
556.6033333333334	0	n/a	333963	KeyDown	41324	2	Ring	28
556.8966666666666	0	n/a	334139	KeyDown	41324	1	Little	28
557.2216666666667	0	n/a	334334	KeyDown	41324	4	Index	28
557.8050000000001	0	n/a	334684	KeyDown	41324	4	Index	28
558.3450000000000	0	n/a	335008	KeyDown	41324	1	Little	28
558.7666666666667	0	n/a	335261	KeyDown	41324	2	Ring	28
558.8116666666667	0	n/a	335288	KeyDown	41324	3	Middle	28
559.2166666666667	0	n/a	335531	KeyDown	41324	4	Index	28
559.6233333333333	0	n/a	335775	KeyDown	41324	4	Index	28
560.0133333333333	0	n/a	336009	KeyDown	41324	1	Little	28
560.4183333333334	0	n/a	336252	StopPractice	41324	n/a	n/a	28
560.4200000000001	0	n/a	336253	StartRest	XXXXX	n/a	n/a	28
570.4533333333334	0	n/a	342273	StopRest	XXXXX	n/a	n/a	28
570.4550000000000	0	UPPT001	342274	StartPractice	41324	n/a	n/a	29
570.9416666666667	0	n/a	342566	KeyDown	41324	4	Index	29
571.3733333333333	0	n/a	342825	KeyDown	41324	1	Little	29
571.7133333333334	0	n/a	343029	KeyDown	41324	3	Middle	29
571.8616666666667	0	n/a	343118	KeyDown	41324	2	Ring	29
572.1483333333334	0	n/a	343290	KeyDown	41324	4	Index	29
572.5716666666667	0	n/a	343544	KeyDown	41324	4	Index	29
572.9433333333334	0	n/a	343767	KeyDown	41324	1	Little	29
573.2533333333333	0	n/a	343953	KeyDown	41324	3	Middle	29
573.3966666666666	0	n/a	344039	KeyDown	41324	2	Ring	29
573.7333333333333	0	n/a	344241	KeyDown	41324	4	Index	29
574.1616666666667	0	n/a	344498	KeyDown	41324	4	Index	29
574.5416666666667	0	n/a	344726	KeyDown	41324	1	Little	29
574.9316666666667	0	n/a	344960	KeyDown	41324	3	Middle	29
575.0833333333334	0	n/a	345051	KeyDown	41324	2	Ring	29
575.4283333333334	0	n/a	345258	KeyDown	41324	4	Index	29
575.8233333333334	0	n/a	345495	KeyDown	41324	4	Index	29
576.2233333333334	0	n/a	345735	KeyDown	41324	1	Little	29
576.5883333333334	0	n/a	345954	KeyDown	41324	3	Middle	29
576.7416666666667	0	n/a	346046	KeyDown	41324	2	Ring	29
577.0466666666667	0	n/a	346229	KeyDown	41324	4	Index	29
577.4900000000000	0	n/a	346495	KeyDown	41324	4	Index	29
577.8216666666667	0	n/a	346694	KeyDown	41324	1	Little	29
578.2500000000000	0	n/a	346951	KeyDown	41324	3	Middle	29
578.4550000000000	0	n/a	347074	KeyDown	41324	2	Ring	29
578.7300000000000	0	n/a	347239	KeyDown	41324	4	Index	29
579.1316666666667	0	n/a	347480	KeyDown	41324	4	Index	29
579.4716666666667	0	n/a	347684	KeyDown	41324	1	Little	29
579.8100000000001	0	n/a	347887	KeyDown	41324	3	Middle	29
579.8983333333334	0	n/a	347940	KeyDown	41324	2	Ring	29
580.2733333333334	0	n/a	348165	KeyDown	41324	4	Index	29
580.4933333333333	0	n/a	348297	StopPractice	41324	n/a	n/a	29
580.4950000000000	0	n/a	348298	StartRest	XXXXX	n/a	n/a	29
590.5283333333334	0	n/a	354318	StopRest	XXXXX	n/a	n/a	29
590.5300000000001	0	UPPT001	354319	StartPractice	41324	n/a	n/a	30
591.0016666666667	0	n/a	354602	KeyDown	41324	4	Index	30
591.3450000000000	0	n/a	354808	KeyDown	41324	1	Little	30
591.7416666666667	0	n/a	355046	KeyDown	41324	3	Middle	30
591.8316666666667	0	n/a	355100	KeyDown	41324	2	Ring	30
592.0816666666667	0	n/a	355250	KeyDown	41324	4	Index	30
592.4666666666667	0	n/a	355481	KeyDown	41324	4	Index	30
592.7933333333334	0	n/a	355677	KeyDown	41324	1	Little	30
593.2033333333334	0	n/a	355923	KeyDown	41324	4	Index	30
593.9283333333334	0	n/a	356358	KeyDown	41324	2	Ring	30
594.3400000000000	0	n/a	356605	KeyDown	41324	4	Index	30
594.8183333333334	0	n/a	356892	KeyDown	41324	4	Index	30
595.1416666666667	0	n/a	357086	KeyDown	41324	1	Little	30
595.4583333333334	0	n/a	357276	KeyDown	41324	3	Middle	30
595.6200000000000	0	n/a	357373	KeyDown	41324	2	Ring	30
595.7850000000001	0	n/a	357472	KeyDown	41324	1	Little	30
595.9200000000001	0	n/a	357553	KeyDown	41324	4	Index	30
596.3983333333334	0	n/a	357840	KeyDown	41324	4	Index	30
596.8383333333334	0	n/a	358104	KeyDown	41324	1	Little	30
597.3033333333334	0	n/a	358383	KeyDown	41324	3	Middle	30
598.1066666666667	0	n/a	358865	KeyDown	41324	2	Ring	30
598.7283333333334	0	n/a	359238	KeyDown	41324	4	Index	30
599.2166666666667	0	n/a	359531	KeyDown	41324	4	Index	30
599.6100000000000	0	n/a	359767	KeyDown	41324	1	Little	30
599.9200000000001	0	n/a	359953	KeyDown	41324	3	Middle	30
600.0883333333334	0	n/a	360054	KeyDown	41324	2	Ring	30
600.3416666666667	0	n/a	360206	KeyDown	41324	4	Index	30
600.5683333333334	0	n/a	360342	StopPractice	41324	n/a	n/a	30
600.5700000000001	0	n/a	360343	StartRest	XXXXX	n/a	n/a	30
610.6016666666667	0	n/a	366362	StopRest	XXXXX	n/a	n/a	30
610.6033333333334	0	UPPT001	366363	StartPractice	41324	n/a	n/a	31
611.0166666666667	0	n/a	366611	KeyDown	41324	4	Index	31
611.3766666666667	0	n/a	366827	KeyDown	41324	1	Little	31
611.8183333333334	0	n/a	367092	KeyDown	41324	4	Index	31
611.9766666666667	0	n/a	367187	KeyDown	41324	3	Middle	31
612.5350000000001	0	n/a	367522	KeyDown	41324	4	Index	31
613.0400000000001	0	n/a	367825	KeyDown	41324	4	Index	31
613.4300000000001	0	n/a	368059	KeyDown	41324	1	Little	31
613.7450000000000	0	n/a	368248	KeyDown	41324	3	Middle	31
613.8666666666667	0	n/a	368321	KeyDown	41324	2	Ring	31
614.1750000000001	0	n/a	368506	KeyDown	41324	4	Index	31
614.5700000000001	0	n/a	368743	KeyDown	41324	4	Index	31
614.9200000000001	0	n/a	368953	KeyDown	41324	1	Little	31
615.2800000000001	0	n/a	369169	KeyDown	41324	3	Middle	31
615.4166666666667	0	n/a	369251	KeyDown	41324	2	Ring	31
615.7050000000000	0	n/a	369424	KeyDown	41324	4	Index	31
616.0833333333334	0	n/a	369651	KeyDown	41324	4	Index	31
616.5133333333333	0	n/a	369909	KeyDown	41324	1	Little	31
616.8900000000000	0	n/a	370135	KeyDown	41324	3	Middle	31
617.0850000000000	0	n/a	370252	KeyDown	41324	2	Ring	31
617.4266666666667	0	n/a	370457	KeyDown	41324	4	Index	31
617.8216666666667	0	n/a	370694	KeyDown	41324	4	Index	31
618.1550000000001	0	n/a	370894	KeyDown	41324	1	Little	31
618.8700000000000	0	n/a	371323	KeyDown	41324	3	Middle	31
619.0733333333334	0	n/a	371445	KeyDown	41324	2	Ring	31
619.3933333333333	0	n/a	371637	KeyDown	41324	4	Index	31
619.8066666666667	0	n/a	371885	KeyDown	41324	4	Index	31
620.1866666666667	0	n/a	372113	KeyDown	41324	1	Little	31
620.6083333333333	0	n/a	372366	KeyDown	41324	3	Middle	31
620.6416666666667	0	n/a	372386	StopPractice	41324	n/a	n/a	31
620.6433333333333	0	n/a	372387	StartRest	XXXXX	n/a	n/a	31
630.6783333333334	0	n/a	378408	StopRest	XXXXX	n/a	n/a	31
630.6800000000001	0	UPPT001	378409	StartPractice	41324	n/a	n/a	32
631.1450000000001	0	n/a	378688	KeyDown	41324	4	Index	32
631.4933333333333	0	n/a	378897	KeyDown	41324	1	Little	32
631.8683333333333	0	n/a	379122	KeyDown	41324	3	Middle	32
632.0283333333334	0	n/a	379218	KeyDown	41324	2	Ring	32
632.3033333333334	0	n/a	379383	KeyDown	41324	4	Index	32
632.6716666666667	0	n/a	379604	KeyDown	41324	4	Index	32
633.0000000000000	0	n/a	379801	KeyDown	41324	1	Little	32
633.4083333333334	0	n/a	380046	KeyDown	41324	3	Middle	32
633.5333333333334	0	n/a	380121	KeyDown	41324	2	Ring	32
633.8283333333334	0	n/a	380298	KeyDown	41324	4	Index	32
634.2333333333333	0	n/a	380541	KeyDown	41324	4	Index	32
634.8416666666667	0	n/a	380906	KeyDown	41324	1	Little	32
635.3100000000001	0	n/a	381187	KeyDown	41324	3	Middle	32
635.4116666666667	0	n/a	381248	KeyDown	41324	2	Ring	32
635.6566666666668	0	n/a	381395	KeyDown	41324	4	Index	32
636.0900000000000	0	n/a	381655	KeyDown	41324	4	Index	32
636.4383333333334	0	n/a	381864	KeyDown	41324	1	Little	32
636.7416666666667	0	n/a	382046	KeyDown	41324	3	Middle	32
636.9033333333334	0	n/a	382143	KeyDown	41324	2	Ring	32
637.1483333333334	0	n/a	382290	KeyDown	41324	4	Index	32
637.5866666666667	0	n/a	382553	KeyDown	41324	4	Index	32
638.0433333333334	0	n/a	382827	KeyDown	41324	1	Little	32
638.5233333333334	0	n/a	383115	KeyDown	41324	3	Middle	32
638.6733333333334	0	n/a	383205	KeyDown	41324	2	Ring	32
638.9400000000001	0	n/a	383365	KeyDown	41324	4	Index	32
639.3683333333333	0	n/a	383622	KeyDown	41324	4	Index	32
639.7600000000000	0	n/a	383857	KeyDown	41324	1	Little	32
640.0233333333334	0	n/a	384015	KeyDown	41324	3	Middle	32
640.2083333333334	0	n/a	384126	KeyDown	41324	2	Ring	32
640.5983333333334	0	n/a	384360	KeyDown	41324	4	Index	32
640.7183333333334	0	n/a	384432	StopPractice	41324	n/a	n/a	32
640.7200000000000	0	n/a	384433	StartRest	XXXXX	n/a	n/a	32
650.7516666666667	0	n/a	390452	StopRest	XXXXX	n/a	n/a	32
650.7533333333333	0	UPPT001	390453	StartPractice	41324	n/a	n/a	33
651.2200000000000	0	n/a	390733	KeyDown	41324	4	Index	33
651.5383333333334	0	n/a	390924	KeyDown	41324	1	Little	33
651.9683333333334	0	n/a	391182	KeyDown	41324	3	Middle	33
652.1100000000000	0	n/a	391267	KeyDown	41324	2	Ring	33
652.3216666666667	0	n/a	391394	KeyDown	41324	4	Index	33
652.7716666666668	0	n/a	391664	KeyDown	41324	4	Index	33
653.1666666666667	0	n/a	391901	KeyDown	41324	1	Little	33
653.7100000000000	0	n/a	392227	KeyDown	41324	4	Index	33
653.8500000000000	0	n/a	392311	KeyDown	41324	3	Middle	33
654.0150000000000	0	n/a	392410	KeyDown	41324	2	Ring	33
654.3566666666667	0	n/a	392615	KeyDown	41324	4	Index	33
654.7583333333333	0	n/a	392856	KeyDown	41324	4	Index	33
655.1166666666667	0	n/a	393071	KeyDown	41324	1	Little	33
655.5650000000001	0	n/a	393340	KeyDown	41324	3	Middle	33
655.7366666666667	0	n/a	393443	KeyDown	41324	2	Ring	33
655.9450000000001	0	n/a	393568	KeyDown	41324	4	Index	33
656.3533333333334	0	n/a	393813	KeyDown	41324	4	Index	33
656.8300000000000	0	n/a	394099	KeyDown	41324	1	Little	33
657.1466666666668	0	n/a	394289	KeyDown	41324	3	Middle	33
657.3516666666667	0	n/a	394412	KeyDown	41324	2	Ring	33
657.6666666666667	0	n/a	394601	KeyDown	41324	4	Index	33
658.0950000000000	0	n/a	394858	KeyDown	41324	4	Index	33
658.4966666666667	0	n/a	395099	KeyDown	41324	1	Little	33
658.8716666666667	0	n/a	395324	KeyDown	41324	3	Middle	33
659.0150000000000	0	n/a	395410	KeyDown	41324	2	Ring	33
659.2916666666667	0	n/a	395576	KeyDown	41324	4	Index	33
659.6466666666668	0	n/a	395789	KeyDown	41324	4	Index	33
659.9966666666667	0	n/a	395999	KeyDown	41324	1	Little	33
660.4016666666668	0	n/a	396242	KeyDown	41324	2	Ring	33
660.7916666666667	0	n/a	396476	StopPractice	41324	n/a	n/a	33
660.7933333333334	0	n/a	396477	StartRest	XXXXX	n/a	n/a	33
670.8266666666667	0	n/a	402497	StopRest	XXXXX	n/a	n/a	33
670.8283333333334	0	UPPT001	402498	StartPractice	41324	n/a	n/a	34
671.4083333333334	0	n/a	402846	KeyDown	41324	4	Index	34
671.8100000000001	0	n/a	403087	KeyDown	41324	1	Little	34
672.1383333333333	0	n/a	403284	KeyDown	41324	3	Middle	34
672.2800000000001	0	n/a	403369	KeyDown	41324	2	Ring	34
672.6083333333333	0	n/a	403566	KeyDown	41324	4	Index	34
673.0316666666668	0	n/a	403820	KeyDown	41324	4	Index	34
673.3650000000000	0	n/a	404020	KeyDown	41324	1	Little	34
673.6516666666668	0	n/a	404192	KeyDown	41324	3	Middle	34
673.8650000000000	0	n/a	404320	KeyDown	41324	2	Ring	34
674.3400000000000	0	n/a	404605	KeyDown	41324	4	Index	34
674.8416666666667	0	n/a	404906	KeyDown	41324	4	Index	34
675.3250000000000	0	n/a	405196	KeyDown	41324	1	Little	34
675.7616666666667	0	n/a	405458	KeyDown	41324	3	Middle	34
675.9616666666667	0	n/a	405578	KeyDown	41324	2	Ring	34
676.1683333333334	0	n/a	405702	KeyDown	41324	4	Index	34
676.6566666666668	0	n/a	405995	KeyDown	41324	4	Index	34
677.0433333333334	0	n/a	406227	KeyDown	41324	1	Little	34
677.5066666666667	0	n/a	406505	KeyDown	41324	3	Middle	34
677.6500000000001	0	n/a	406591	KeyDown	41324	2	Ring	34
677.9633333333334	0	n/a	406779	KeyDown	41324	4	Index	34
678.3766666666667	0	n/a	407027	KeyDown	41324	4	Index	34
678.7416666666667	0	n/a	407246	KeyDown	41324	1	Little	34
679.2133333333334	0	n/a	407529	KeyDown	41324	3	Middle	34
679.5816666666667	0	n/a	407750	KeyDown	41324	2	Ring	34
679.8033333333334	0	n/a	407883	KeyDown	41324	4	Index	34
680.2316666666667	0	n/a	408140	KeyDown	41324	4	Index	34
680.6150000000000	0	n/a	408370	KeyDown	41324	1	Little	34
680.8666666666667	0	n/a	408521	StopPractice	41324	n/a	n/a	34
680.8683333333333	0	n/a	408522	StartRest	XXXXX	n/a	n/a	34
690.9033333333334	0	n/a	414543	StopRest	XXXXX	n/a	n/a	34
690.9050000000001	0	UPPT001	414544	StartPractice	41324	n/a	n/a	35
691.4133333333334	0	n/a	414849	KeyDown	41324	4	Index	35
691.7400000000000	0	n/a	415045	KeyDown	41324	1	Little	35
692.2116666666667	0	n/a	415328	KeyDown	41324	3	Middle	35
692.4083333333334	0	n/a	415446	KeyDown	41324	2	Ring	35
692.5733333333334	0	n/a	415545	KeyDown	41324	4	Index	35
692.9766666666667	0	n/a	415787	KeyDown	41324	4	Index	35
693.3466666666667	0	n/a	416009	KeyDown	41324	1	Little	35
693.8000000000001	0	n/a	416281	KeyDown	41324	3	Middle	35
693.9966666666667	0	n/a	416399	KeyDown	41324	2	Ring	35
694.1983333333334	0	n/a	416520	KeyDown	41324	4	Index	35
694.5966666666667	0	n/a	416759	KeyDown	41324	4	Index	35
694.9950000000000	0	n/a	416998	KeyDown	41324	1	Little	35
695.5100000000000	0	n/a	417307	KeyDown	41324	3	Middle	35
695.7166666666667	0	n/a	417431	KeyDown	41324	2	Ring	35
695.9933333333333	0	n/a	417597	KeyDown	41324	4	Index	35
696.3816666666667	0	n/a	417830	KeyDown	41324	4	Index	35
696.8016666666667	0	n/a	418082	KeyDown	41324	1	Little	35
697.1066666666667	0	n/a	418265	KeyDown	41324	3	Middle	35
697.2883333333334	0	n/a	418374	KeyDown	41324	2	Ring	35
697.6133333333333	0	n/a	418569	KeyDown	41324	4	Index	35
698.5166666666668	0	n/a	419111	KeyDown	41324	4	Index	35
698.9616666666667	0	n/a	419378	KeyDown	41324	1	Little	35
699.3116666666667	0	n/a	419588	KeyDown	41324	3	Middle	35
699.4400000000001	0	n/a	419665	KeyDown	41324	2	Ring	35
699.7750000000001	0	n/a	419866	KeyDown	41324	4	Index	35
700.4383333333334	0	n/a	420264	KeyDown	41324	4	Index	35
700.8916666666668	0	n/a	420536	KeyDown	41324	1	Little	35
700.9433333333334	0	n/a	420567	StopPractice	41324	n/a	n/a	35
700.9450000000001	0	n/a	420568	StartRest	XXXXX	n/a	n/a	35
710.9766666666667	0	n/a	426587	StopRest	XXXXX	n/a	n/a	35
710.9783333333334	0	UPPT001	426588	StartPractice	41324	n/a	n/a	36
711.4366666666667	0	n/a	426863	KeyDown	41324	4	Index	36
711.9750000000000	0	n/a	427186	KeyDown	41324	1	Little	36
712.5283333333334	0	n/a	427518	KeyDown	41324	3	Middle	36
712.7350000000000	0	n/a	427642	KeyDown	41324	2	Ring	36
713.0683333333334	0	n/a	427842	KeyDown	41324	4	Index	36
713.4766666666667	0	n/a	428087	KeyDown	41324	4	Index	36
713.9066666666668	0	n/a	428345	KeyDown	41324	1	Little	36
714.2100000000000	0	n/a	428527	KeyDown	41324	3	Middle	36
714.4166666666667	0	n/a	428651	KeyDown	41324	2	Ring	36
714.7866666666667	0	n/a	428873	KeyDown	41324	4	Index	36
715.1883333333334	0	n/a	429114	KeyDown	41324	4	Index	36
715.6016666666667	0	n/a	429362	KeyDown	41324	1	Little	36
715.9800000000000	0	n/a	429589	KeyDown	41324	3	Middle	36
716.1533333333334	0	n/a	429693	KeyDown	41324	2	Ring	36
716.4550000000000	0	n/a	429874	KeyDown	41324	4	Index	36
716.8416666666667	0	n/a	430106	KeyDown	41324	4	Index	36
717.2516666666667	0	n/a	430352	KeyDown	41324	1	Little	36
717.6133333333333	0	n/a	430569	KeyDown	41324	3	Middle	36
717.7683333333334	0	n/a	430662	KeyDown	41324	2	Ring	36
718.0733333333334	0	n/a	430845	KeyDown	41324	4	Index	36
718.4600000000000	0	n/a	431077	KeyDown	41324	4	Index	36
718.8183333333334	0	n/a	431292	KeyDown	41324	1	Little	36
719.1683333333334	0	n/a	431502	KeyDown	41324	3	Middle	36
719.3216666666667	0	n/a	431594	KeyDown	41324	2	Ring	36
719.6233333333333	0	n/a	431775	KeyDown	41324	4	Index	36
719.9666666666667	0	n/a	431981	KeyDown	41324	4	Index	36
720.2766666666668	0	n/a	432167	KeyDown	41324	1	Little	36
720.6533333333334	0	n/a	432393	KeyDown	41324	3	Middle	36
720.8166666666667	0	n/a	432491	KeyDown	41324	2	Ring	36
721.0166666666668	0	n/a	432611	StopPractice	41324	n/a	n/a	36
721.0183333333334	0	n/a	432612	StartRest	XXXXX	n/a	n/a	36
731.0533333333334	0	n/a	438633	StopRest	XXXXX	n/a	n/a	36
