onset	duration	channel	onset_sample_idx	event_type	target_sequence	keypress_id	finger_label	trial_number
9.1066666666667	0	UPPT001	5465	StartPractice	41324	n/a	n/a	1
9.7100000000000	0	n/a	5827	KeyDown	41324	4	Index	1
9.8466666666667	0	n/a	5909	KeyDown	41324	1	Little	1
10.0883333333333	0	n/a	6054	KeyDown	41324	3	Middle	1
10.1866666666667	0	n/a	6113	KeyDown	41324	2	Ring	1
10.3383333333333	0	n/a	6204	KeyDown	41324	4	Index	1
10.5450000000000	0	n/a	6328	KeyDown	41324	4	Index	1
10.7783333333333	0	n/a	6468	KeyDown	41324	1	Little	1
11.0283333333333	0	n/a	6618	KeyDown	41324	3	Middle	1
11.1500000000000	0	n/a	6691	KeyDown	41324	2	Ring	1
11.3133333333333	0	n/a	6789	KeyDown	41324	4	Index	1
11.5300000000000	0	n/a	6919	KeyDown	41324	4	Index	1
11.6933333333333	0	n/a	7017	KeyDown	41324	1	Little	1
12.0566666666667	0	n/a	7235	KeyDown	41324	3	Middle	1
12.1783333333333	0	n/a	7308	KeyDown	41324	2	Ring	1
12.3066666666667	0	n/a	7385	KeyDown	41324	4	Index	1
12.5050000000000	0	n/a	7504	KeyDown	41324	4	Index	1
12.6433333333333	0	n/a	7587	KeyDown	41324	1	Little	1
12.8283333333333	0	n/a	7698	KeyDown	41324	3	Middle	1
12.9500000000000	0	n/a	7771	KeyDown	41324	2	Ring	1
13.0700000000000	0	n/a	7843	KeyDown	41324	4	Index	1
13.2800000000000	0	n/a	7969	KeyDown	41324	4	Index	1
13.4050000000000	0	n/a	8044	KeyDown	41324	1	Little	1
13.6550000000000	0	n/a	8194	KeyDown	41324	3	Middle	1
13.7616666666667	0	n/a	8258	KeyDown	41324	2	Ring	1
14.0700000000000	0	n/a	8443	KeyDown	41324	4	Index	1
14.2616666666667	0	n/a	8558	KeyDown	41324	4	Index	1
14.3983333333333	0	n/a	8640	KeyDown	41324	1	Little	1
14.6533333333333	0	n/a	8793	KeyDown	41324	3	Middle	1
14.7583333333333	0	n/a	8856	KeyDown	41324	2	Ring	1
14.9400000000000	0	n/a	8965	KeyDown	41324	4	Index	1
15.1500000000000	0	n/a	9091	KeyDown	41324	4	Index	1
15.2400000000000	0	n/a	9145	KeyDown	41324	1	Little	1
15.4833333333333	0	n/a	9291	KeyDown	41324	3	Middle	1
15.5783333333333	0	n/a	9348	KeyDown	41324	2	Ring	1
15.7600000000000	0	n/a	9457	KeyDown	41324	4	Index	1
15.9416666666667	0	n/a	9566	KeyDown	41324	4	Index	1
16.0883333333333	0	n/a	9654	KeyDown	41324	1	Little	1
16.3350000000000	0	n/a	9802	KeyDown	41324	3	Middle	1
16.4483333333333	0	n/a	9870	KeyDown	41324	2	Ring	1
16.6033333333333	0	n/a	9963	KeyDown	41324	4	Index	1
16.7800000000000	0	n/a	10069	KeyDown	41324	4	Index	1
16.9233333333333	0	n/a	10155	KeyDown	41324	1	Little	1
17.1083333333333	0	n/a	10266	KeyDown	41324	3	Middle	1
17.2383333333333	0	n/a	10344	KeyDown	41324	2	Ring	1
17.4166666666667	0	n/a	10451	KeyDown	41324	4	Index	1
17.6483333333333	0	n/a	10590	KeyDown	41324	1	Little	1
17.9483333333333	0	n/a	10770	KeyDown	41324	4	Index	1
18.3666666666667	0	n/a	11021	KeyDown	41324	3	Middle	1
18.4616666666667	0	n/a	11078	KeyDown	41324	2	Ring	1
18.6800000000000	0	n/a	11209	KeyDown	41324	4	Index	1
18.8550000000000	0	n/a	11314	KeyDown	41324	4	Index	1
18.8900000000000	0	n/a	11335	KeyDown	41324	1	Little	1
18.9900000000000	0	n/a	11395	KeyDown	41324	1	Little	1
19.1533333333333	0	n/a	11493	StopPractice	41324	n/a	n/a	1
19.1550000000000	0	n/a	11494	StartRest	XXXXX	n/a	n/a	1
29.2116666666667	0	n/a	17528	StopRest	XXXXX	n/a	n/a	1
29.2133333333333	0	UPPT001	17529	StartPractice	41324	n/a	n/a	2
29.7166666666667	0	n/a	17831	KeyDown	41324	4	Index	2
29.8400000000000	0	n/a	17905	KeyDown	41324	1	Little	2
30.1000000000000	0	n/a	18061	KeyDown	41324	3	Middle	2
30.1883333333333	0	n/a	18114	KeyDown	41324	2	Ring	2
30.3733333333333	0	n/a	18225	KeyDown	41324	4	Index	2
30.5400000000000	0	n/a	18325	KeyDown	41324	4	Index	2
30.6400000000000	0	n/a	18385	KeyDown	41324	1	Little	2
30.8766666666667	0	n/a	18527	KeyDown	41324	3	Middle	2
30.9733333333333	0	n/a	18585	KeyDown	41324	2	Ring	2
31.0800000000000	0	n/a	18649	KeyDown	41324	4	Index	2
31.2383333333333	0	n/a	18744	KeyDown	41324	4	Index	2
31.3883333333333	0	n/a	18834	KeyDown	41324	1	Little	2
31.6533333333333	0	n/a	18993	KeyDown	41324	2	Ring	2
31.7500000000000	0	n/a	19051	KeyDown	41324	3	Middle	2
32.0416666666667	0	n/a	19226	KeyDown	41324	4	Index	2
32.2616666666667	0	n/a	19358	KeyDown	41324	4	Index	2
32.3666666666667	0	n/a	19421	KeyDown	41324	1	Little	2
32.5683333333333	0	n/a	19542	KeyDown	41324	3	Middle	2
32.7250000000000	0	n/a	19636	KeyDown	41324	2	Ring	2
32.8950000000000	0	n/a	19738	KeyDown	41324	4	Index	2
33.0616666666667	0	n/a	19838	KeyDown	41324	4	Index	2
33.1916666666667	0	n/a	19916	KeyDown	41324	1	Little	2
33.3500000000000	0	n/a	20011	KeyDown	41324	3	Middle	2
33.4783333333333	0	n/a	20088	KeyDown	41324	2	Ring	2
33.6400000000000	0	n/a	20185	KeyDown	41324	4	Index	2
33.8166666666667	0	n/a	20291	KeyDown	41324	4	Index	2
33.9700000000000	0	n/a	20383	KeyDown	41324	1	Little	2
34.2600000000000	0	n/a	20557	KeyDown	41324	2	Ring	2
34.5200000000000	0	n/a	20713	KeyDown	41324	3	Middle	2
34.6766666666667	0	n/a	20807	KeyDown	41324	2	Ring	2
34.8383333333333	0	n/a	20904	KeyDown	41324	4	Index	2
35.0233333333333	0	n/a	21015	KeyDown	41324	4	Index	2
35.1266666666667	0	n/a	21077	KeyDown	41324	1	Little	2
35.3900000000000	0	n/a	21235	KeyDown	41324	2	Ring	2
35.4916666666667	0	n/a	21296	KeyDown	41324	3	Middle	2
35.8450000000000	0	n/a	21508	KeyDown	41324	4	Index	2
36.4466666666667	0	n/a	21869	KeyDown	41324	1	Little	2
36.9616666666667	0	n/a	22178	KeyDown	41324	3	Middle	2
37.0783333333333	0	n/a	22248	KeyDown	41324	2	Ring	2
37.2950000000000	0	n/a	22378	KeyDown	41324	4	Index	2
37.4516666666667	0	n/a	22472	KeyDown	41324	4	Index	2
37.5766666666667	0	n/a	22547	KeyDown	41324	1	Little	2
37.8100000000000	0	n/a	22687	KeyDown	41324	3	Middle	2
37.9216666666667	0	n/a	22754	KeyDown	41324	2	Ring	2
38.1100000000000	0	n/a	22867	KeyDown	41324	4	Index	2
38.2850000000000	0	n/a	22972	KeyDown	41324	4	Index	2
38.3916666666667	0	n/a	23036	KeyDown	41324	1	Little	2
38.5666666666667	0	n/a	23141	KeyDown	41324	3	Middle	2
38.6566666666667	0	n/a	23195	KeyDown	41324	2	Ring	2
38.8216666666667	0	n/a	23294	KeyDown	41324	4	Index	2
39.0650000000000	0	n/a	23440	KeyDown	41324	4	Index	2
39.2600000000000	0	n/a	23557	StopPractice	41324	n/a	n/a	2
39.2616666666667	0	n/a	23558	StartRest	XXXXX	n/a	n/a	2
49.3033333333333	0	n/a	29583	StopRest	XXXXX	n/a	n/a	2
49.3050000000000	0	UPPT001	29584	StartPractice	41324	n/a	n/a	3
49.7566666666667	0	n/a	29855	KeyDown	41324	4	Index	3
49.8716666666667	0	n/a	29924	KeyDown	41324	1	Little	3
50.0483333333333	0	n/a	30030	KeyDown	41324	3	Middle	3
50.2066666666667	0	n/a	30125	KeyDown	41324	2	Ring	3
50.4416666666667	0	n/a	30266	KeyDown	41324	4	Index	3
50.6283333333333	0	n/a	30378	KeyDown	41324	4	Index	3
50.7966666666667	0	n/a	30479	KeyDown	41324	1	Little	3
51.0650000000000	0	n/a	30640	KeyDown	41324	3	Middle	3
51.1916666666667	0	n/a	30716	KeyDown	41324	2	Ring	3
51.3950000000000	0	n/a	30838	KeyDown	41324	4	Index	3
51.5633333333333	0	n/a	30939	KeyDown	41324	4	Index	3
51.7566666666667	0	n/a	31055	KeyDown	41324	1	Little	3
52.1316666666667	0	n/a	31280	KeyDown	41324	3	Middle	3
52.1766666666667	0	n/a	31307	KeyDown	41324	2	Ring	3
52.3600000000000	0	n/a	31417	KeyDown	41324	2	Ring	3
52.5800000000000	0	n/a	31549	KeyDown	41324	4	Index	3
52.8766666666667	0	n/a	31727	KeyDown	41324	4	Index	3
53.0533333333333	0	n/a	31833	KeyDown	41324	1	Little	3
53.3666666666667	0	n/a	32021	KeyDown	41324	2	Ring	3
53.4033333333333	0	n/a	32043	KeyDown	41324	3	Middle	3
53.5333333333333	0	n/a	32121	KeyDown	41324	2	Ring	3
53.7583333333333	0	n/a	32256	KeyDown	41324	4	Index	3
53.9616666666667	0	n/a	32378	KeyDown	41324	4	Index	3
54.1666666666667	0	n/a	32501	KeyDown	41324	1	Little	3
54.5216666666667	0	n/a	32714	KeyDown	41324	3	Middle	3
54.5333333333333	0	n/a	32721	KeyDown	41324	2	Ring	3
55.1266666666667	0	n/a	33077	KeyDown	41324	4	Index	3
55.3466666666667	0	n/a	33209	KeyDown	41324	4	Index	3
55.5466666666667	0	n/a	33329	KeyDown	41324	1	Little	3
55.8116666666667	0	n/a	33488	KeyDown	41324	3	Middle	3
55.9316666666667	0	n/a	33560	KeyDown	41324	2	Ring	3
56.1866666666667	0	n/a	33713	KeyDown	41324	4	Index	3
56.3983333333333	0	n/a	33840	KeyDown	41324	1	Little	3
56.6416666666667	0	n/a	33986	KeyDown	41324	3	Middle	3
56.7483333333333	0	n/a	34050	KeyDown	41324	2	Ring	3
56.9616666666667	0	n/a	34178	KeyDown	41324	4	Index	3
57.6866666666667	0	n/a	34613	KeyDown	41324	4	Index	3
57.8733333333333	0	n/a	34725	KeyDown	41324	1	Little	3
58.2533333333333	0	n/a	34953	KeyDown	41324	2	Ring	3
58.4366666666667	0	n/a	35063	KeyDown	41324	3	Middle	3
58.5833333333333	0	n/a	35151	KeyDown	41324	2	Ring	3
58.8716666666667	0	n/a	35324	KeyDown	41324	4	Index	3
59.0933333333333	0	n/a	35457	KeyDown	41324	4	Index	3
59.2600000000000	0	n/a	35557	KeyDown	41324	1	Little	3
59.3516666666667	0	n/a	35612	StopPractice	41324	n/a	n/a	3
59.3533333333333	0	n/a	35613	StartRest	XXXXX	n/a	n/a	3
69.3766666666667	0	n/a	41627	StopRest	XXXXX	n/a	n/a	3
69.3783333333333	0	UPPT001	41628	StartPractice	41324	n/a	n/a	4
69.8666666666667	0	n/a	41921	KeyDown	41324	4	Index	4
70.1100000000000	0	n/a	42067	KeyDown	41324	1	Little	4
70.3950000000000	0	n/a	42238	KeyDown	41324	3	Middle	4
70.5066666666667	0	n/a	42305	KeyDown	41324	2	Ring	4
70.7283333333333	0	n/a	42438	KeyDown	41324	4	Index	4
71.1250000000000	0	n/a	42676	KeyDown	41324	4	Index	4
71.3266666666667	0	n/a	42797	KeyDown	41324	1	Little	4
71.5950000000000	0	n/a	42958	KeyDown	41324	3	Middle	4
71.7266666666667	0	n/a	43037	KeyDown	41324	2	Ring	4
71.9366666666667	0	n/a	43163	KeyDown	41324	4	Index	4
72.1350000000000	0	n/a	43282	KeyDown	41324	4	Index	4
72.2933333333333	0	n/a	43377	KeyDown	41324	1	Little	4
72.6400000000000	0	n/a	43585	KeyDown	41324	2	Ring	4
73.2016666666667	0	n/a	43922	KeyDown	41324	3	Middle	4
73.5266666666667	0	n/a	44117	KeyDown	41324	4	Index	4
73.8216666666667	0	n/a	44294	KeyDown	41324	4	Index	4
73.9950000000000	0	n/a	44398	KeyDown	41324	1	Little	4
74.2700000000000	0	n/a	44563	KeyDown	41324	3	Middle	4
74.3616666666667	0	n/a	44618	KeyDown	41324	2	Ring	4
74.5650000000000	0	n/a	44740	KeyDown	41324	4	Index	4
74.7300000000000	0	n/a	44839	KeyDown	41324	4	Index	4
74.8916666666667	0	n/a	44936	KeyDown	41324	1	Little	4
75.1166666666667	0	n/a	45071	KeyDown	41324	3	Middle	4
75.2066666666667	0	n/a	45125	KeyDown	41324	2	Ring	4
75.4000000000000	0	n/a	45241	KeyDown	41324	4	Index	4
75.5616666666667	0	n/a	45338	KeyDown	41324	4	Index	4
75.7016666666667	0	n/a	45422	KeyDown	41324	1	Little	4
75.9833333333333	0	n/a	45591	KeyDown	41324	2	Ring	4
76.1016666666667	0	n/a	45662	KeyDown	41324	3	Middle	4
76.2600000000000	0	n/a	45757	KeyDown	41324	2	Ring	4
76.5383333333333	0	n/a	45924	KeyDown	41324	4	Index	4
76.8933333333333	0	n/a	46137	KeyDown	41324	4	Index	4
77.1050000000000	0	n/a	46264	KeyDown	41324	1	Little	4
77.4566666666667	0	n/a	46475	KeyDown	41324	3	Middle	4
77.5916666666667	0	n/a	46556	KeyDown	41324	2	Ring	4
77.8266666666667	0	n/a	46697	KeyDown	41324	4	Index	4
77.9866666666667	0	n/a	46793	KeyDown	41324	4	Index	4
78.1683333333333	0	n/a	46902	KeyDown	41324	1	Little	4
78.7133333333333	0	n/a	47229	KeyDown	41324	3	Middle	4
78.7950000000000	0	n/a	47278	KeyDown	41324	2	Ring	4
79.0366666666667	0	n/a	47423	KeyDown	41324	4	Index	4
79.2250000000000	0	n/a	47536	KeyDown	41324	1	Little	4
79.4250000000000	0	n/a	47656	StopPractice	41324	n/a	n/a	4
79.4266666666667	0	n/a	47657	StartRest	XXXXX	n/a	n/a	4
89.4516666666667	0	n/a	53672	StopRest	XXXXX	n/a	n/a	4
89.4533333333333	0	UPPT001	53673	StartPractice	41324	n/a	n/a	5
89.8250000000000	0	n/a	53896	KeyDown	41324	4	Index	5
89.9700000000000	0	n/a	53983	KeyDown	41324	1	Little	5
90.2350000000000	0	n/a	54142	KeyDown	41324	3	Middle	5
90.3066666666667	0	n/a	54185	KeyDown	41324	2	Ring	5
90.5250000000000	0	n/a	54316	KeyDown	41324	4	Index	5
90.7450000000000	0	n/a	54448	KeyDown	41324	1	Little	5
91.5266666666667	0	n/a	54917	KeyDown	41324	3	Middle	5
91.6050000000000	0	n/a	54964	KeyDown	41324	2	Ring	5
91.8366666666667	0	n/a	55103	KeyDown	41324	4	Index	5
92.0066666666667	0	n/a	55205	KeyDown	41324	4	Index	5
92.1983333333333	0	n/a	55320	KeyDown	41324	1	Little	5
92.4416666666667	0	n/a	55466	KeyDown	41324	3	Middle	5
92.5300000000000	0	n/a	55519	KeyDown	41324	2	Ring	5
92.7650000000000	0	n/a	55660	KeyDown	41324	4	Index	5
92.9416666666667	0	n/a	55766	KeyDown	41324	4	Index	5
93.1150000000000	0	n/a	55870	KeyDown	41324	1	Little	5
93.3683333333333	0	n/a	56022	KeyDown	41324	3	Middle	5
93.4416666666667	0	n/a	56066	KeyDown	41324	2	Ring	5
93.6800000000000	0	n/a	56209	KeyDown	41324	4	Index	5
93.8533333333333	0	n/a	56313	KeyDown	41324	4	Index	5
94.0066666666667	0	n/a	56405	KeyDown	41324	1	Little	5
94.2816666666667	0	n/a	56570	KeyDown	41324	3	Middle	5
94.3616666666667	0	n/a	56618	KeyDown	41324	2	Ring	5
94.6000000000000	0	n/a	56761	KeyDown	41324	4	Index	5
94.7750000000000	0	n/a	56866	KeyDown	41324	4	Index	5
94.9350000000000	0	n/a	56962	KeyDown	41324	1	Little	5
95.2716666666667	0	n/a	57164	KeyDown	41324	3	Middle	5
95.3800000000000	0	n/a	57229	KeyDown	41324	2	Ring	5
95.5500000000000	0	n/a	57331	KeyDown	41324	4	Index	5
95.7100000000000	0	n/a	57427	KeyDown	41324	4	Index	5
95.8766666666667	0	n/a	57527	KeyDown	41324	1	Little	5
96.1050000000000	0	n/a	57664	KeyDown	41324	3	Middle	5
96.2283333333333	0	n/a	57738	KeyDown	41324	2	Ring	5
96.4166666666667	0	n/a	57851	KeyDown	41324	4	Index	5
96.5766666666667	0	n/a	57947	KeyDown	41324	4	Index	5
96.7216666666667	0	n/a	58034	KeyDown	41324	1	Little	5
96.9933333333333	0	n/a	58197	KeyDown	41324	3	Middle	5
97.0916666666667	0	n/a	58256	KeyDown	41324	2	Ring	5
97.2833333333333	0	n/a	58371	KeyDown	41324	4	Index	5
97.4466666666667	0	n/a	58469	KeyDown	41324	4	Index	5
97.5733333333333	0	n/a	58545	KeyDown	41324	1	Little	5
97.7466666666667	0	n/a	58649	KeyDown	41324	3	Middle	5
97.8666666666667	0	n/a	58721	KeyDown	41324	2	Ring	5
98.0583333333333	0	n/a	58836	KeyDown	41324	4	Index	5
98.2216666666667	0	n/a	58934	KeyDown	41324	4	Index	5
98.3516666666667	0	n/a	59012	KeyDown	41324	1	Little	5
98.6866666666667	0	n/a	59213	KeyDown	41324	3	Middle	5
98.8050000000000	0	n/a	59284	KeyDown	41324	2	Ring	5
98.9450000000000	0	n/a	59368	KeyDown	41324	4	Index	5
99.1000000000000	0	n/a	59461	KeyDown	41324	4	Index	5
99.1966666666667	0	n/a	59519	KeyDown	41324	1	Little	5
99.3950000000000	0	n/a	59638	KeyDown	41324	3	Middle	5
99.5000000000000	0	n/a	59701	StopPractice	41324	n/a	n/a	5
99.5016666666667	0	n/a	59702	StartRest	XXXXX	n/a	n/a	5
109.5433333333333	0	n/a	65727	StopRest	XXXXX	n/a	n/a	5
109.5450000000000	0	UPPT001	65728	StartPractice	41324	n/a	n/a	6
109.9033333333333	0	n/a	65943	KeyDown	41324	4	Index	6
110.0116666666667	0	n/a	66008	KeyDown	41324	1	Little	6
110.2250000000000	0	n/a	66136	KeyDown	41324	3	Middle	6
110.3533333333333	0	n/a	66213	KeyDown	41324	2	Ring	6
110.6216666666667	0	n/a	66374	KeyDown	41324	4	Index	6
110.8966666666667	0	n/a	66539	KeyDown	41324	4	Index	6
111.0566666666667	0	n/a	66635	KeyDown	41324	1	Little	6
111.3400000000000	0	n/a	66805	KeyDown	41324	3	Middle	6
111.4583333333333	0	n/a	66876	KeyDown	41324	2	Ring	6
111.6916666666667	0	n/a	67016	KeyDown	41324	4	Index	6
111.9100000000000	0	n/a	67147	KeyDown	41324	4	Index	6
112.1666666666667	0	n/a	67301	KeyDown	41324	1	Little	6
112.3966666666667	0	n/a	67439	KeyDown	41324	3	Middle	6
112.5316666666667	0	n/a	67520	KeyDown	41324	2	Ring	6
112.7316666666667	0	n/a	67640	KeyDown	41324	4	Index	6
112.8950000000000	0	n/a	67738	KeyDown	41324	4	Index	6
113.0783333333333	0	n/a	67848	KeyDown	41324	1	Little	6
113.3233333333333	0	n/a	67995	KeyDown	41324	3	Middle	6
113.4733333333333	0	n/a	68085	KeyDown	41324	2	Ring	6
113.6716666666667	0	n/a	68204	KeyDown	41324	4	Index	6
113.8550000000000	0	n/a	68314	KeyDown	41324	4	Index	6
113.9900000000000	0	n/a	68395	KeyDown	41324	1	Little	6
114.2666666666667	0	n/a	68561	KeyDown	41324	3	Middle	6
114.4016666666667	0	n/a	68642	KeyDown	41324	2	Ring	6
114.5983333333333	0	n/a	68760	KeyDown	41324	4	Index	6
114.8133333333333	0	n/a	68889	KeyDown	41324	4	Index	6
114.9666666666667	0	n/a	68981	KeyDown	41324	1	Little	6
115.2316666666667	0	n/a	69140	KeyDown	41324	3	Middle	6
115.3900000000000	0	n/a	69235	KeyDown	41324	2	Ring	6
115.5966666666667	0	n/a	69359	KeyDown	41324	4	Index	6
115.8033333333333	0	n/a	69483	KeyDown	41324	4	Index	6
116.0133333333333	0	n/a	69609	KeyDown	41324	1	Little	6
116.3016666666667	0	n/a	69782	KeyDown	41324	3	Middle	6
116.4133333333333	0	n/a	69849	KeyDown	41324	2	Ring	6
116.6233333333333	0	n/a	69975	KeyDown	41324	4	Index	6
116.8233333333333	0	n/a	70095	KeyDown	41324	4	Index	6
116.9733333333333	0	n/a	70185	KeyDown	41324	1	Little	6
117.2416666666667	0	n/a	70346	KeyDown	41324	2	Ring	6
117.3433333333333	0	n/a	70407	KeyDown	41324	3	Middle	6
117.5316666666667	0	n/a	70520	KeyDown	41324	2	Ring	6
117.8016666666667	0	n/a	70682	KeyDown	41324	4	Index	6
117.9583333333333	0	n/a	70776	KeyDown	41324	4	Index	6
118.0833333333333	0	n/a	70851	KeyDown	41324	1	Little	6
118.2383333333333	0	n/a	70944	KeyDown	41324	3	Middle	6
118.4233333333333	0	n/a	71055	KeyDown	41324	2	Ring	6
118.7216666666667	0	n/a	71234	KeyDown	41324	4	Index	6
118.9216666666667	0	n/a	71354	KeyDown	41324	1	Little	6
119.1383333333333	0	n/a	71484	KeyDown	41324	3	Middle	6
119.2716666666667	0	n/a	71564	KeyDown	41324	2	Ring	6
119.4250000000000	0	n/a	71656	KeyDown	41324	4	Index	6
119.5916666666667	0	n/a	71756	StopPractice	41324	n/a	n/a	6
119.5933333333333	0	n/a	71757	StartRest	XXXXX	n/a	n/a	6
129.6350000000000	0	n/a	77782	StopRest	XXXXX	n/a	n/a	6
129.6366666666667	0	UPPT001	77783	StartPractice	41324	n/a	n/a	7
129.9866666666667	0	n/a	77993	KeyDown	41324	4	Index	7
130.0950000000000	0	n/a	78058	KeyDown	41324	1	Little	7
130.3133333333333	0	n/a	78189	KeyDown	41324	3	Middle	7
130.4250000000000	0	n/a	78256	KeyDown	41324	2	Ring	7
130.6650000000000	0	n/a	78400	KeyDown	41324	4	Index	7
130.8766666666667	0	n/a	78527	KeyDown	41324	4	Index	7
131.0166666666667	0	n/a	78611	KeyDown	41324	4	Index	7
131.1850000000000	0	n/a	78712	KeyDown	41324	1	Little	7
131.4533333333333	0	n/a	78873	KeyDown	41324	3	Middle	7
131.5950000000000	0	n/a	78958	KeyDown	41324	2	Ring	7
131.8400000000000	0	n/a	79105	KeyDown	41324	4	Index	7
132.0033333333333	0	n/a	79203	KeyDown	41324	4	Index	7
132.1583333333333	0	n/a	79296	KeyDown	41324	1	Little	7
132.3666666666667	0	n/a	79421	KeyDown	41324	3	Middle	7
132.4683333333333	0	n/a	79482	KeyDown	41324	2	Ring	7
132.7233333333333	0	n/a	79635	KeyDown	41324	4	Index	7
132.8833333333334	0	n/a	79731	KeyDown	41324	4	Index	7
133.0400000000000	0	n/a	79825	KeyDown	41324	1	Little	7
133.2833333333333	0	n/a	79971	KeyDown	41324	3	Middle	7
133.3983333333333	0	n/a	80040	KeyDown	41324	2	Ring	7
133.6083333333333	0	n/a	80166	KeyDown	41324	4	Index	7
133.7733333333333	0	n/a	80265	KeyDown	41324	4	Index	7
133.9300000000000	0	n/a	80359	KeyDown	41324	1	Little	7
134.1883333333333	0	n/a	80514	KeyDown	41324	3	Middle	7
134.3000000000000	0	n/a	80581	KeyDown	41324	2	Ring	7
134.4883333333333	0	n/a	80694	KeyDown	41324	4	Index	7
134.6600000000000	0	n/a	80797	KeyDown	41324	4	Index	7
134.8216666666667	0	n/a	80894	KeyDown	41324	1	Little	7
135.4116666666667	0	n/a	81248	KeyDown	41324	3	Middle	7
135.5033333333333	0	n/a	81303	KeyDown	41324	2	Ring	7
135.6733333333333	0	n/a	81405	KeyDown	41324	4	Index	7
135.8700000000000	0	n/a	81523	KeyDown	41324	4	Index	7
136.0283333333333	0	n/a	81618	KeyDown	41324	1	Little	7
136.2950000000000	0	n/a	81778	KeyDown	41324	3	Middle	7
136.4200000000000	0	n/a	81853	KeyDown	41324	2	Ring	7
136.5900000000000	0	n/a	81955	KeyDown	41324	4	Index	7
136.7316666666667	0	n/a	82040	KeyDown	41324	4	Index	7
136.8750000000000	0	n/a	82126	KeyDown	41324	1	Little	7
137.0883333333333	0	n/a	82254	KeyDown	41324	3	Middle	7
137.1950000000000	0	n/a	82318	KeyDown	41324	2	Ring	7
137.3966666666667	0	n/a	82439	KeyDown	41324	4	Index	7
137.5483333333333	0	n/a	82530	KeyDown	41324	4	Index	7
137.6900000000000	0	n/a	82615	KeyDown	41324	1	Little	7
137.9216666666667	0	n/a	82754	KeyDown	41324	3	Middle	7
138.0200000000000	0	n/a	82813	KeyDown	41324	2	Ring	7
138.1883333333333	0	n/a	82914	KeyDown	41324	4	Index	7
138.3566666666667	0	n/a	83015	KeyDown	41324	4	Index	7
138.5050000000000	0	n/a	83104	KeyDown	41324	1	Little	7
138.8083333333333	0	n/a	83286	KeyDown	41324	2	Ring	7
139.0183333333333	0	n/a	83412	KeyDown	41324	3	Middle	7
139.1033333333334	0	n/a	83463	KeyDown	41324	2	Ring	7
139.3933333333333	0	n/a	83637	KeyDown	41324	4	Index	7
139.5483333333333	0	n/a	83730	KeyDown	41324	4	Index	7
139.6833333333333	0	n/a	83811	StopPractice	41324	n/a	n/a	7
139.6850000000000	0	n/a	83812	StartRest	XXXXX	n/a	n/a	7
149.7266666666667	0	n/a	89837	StopRest	XXXXX	n/a	n/a	7
149.7283333333334	0	UPPT001	89838	StartPractice	41324	n/a	n/a	8
150.0600000000000	0	n/a	90037	KeyDown	41324	4	Index	8
150.1266666666667	0	n/a	90077	KeyDown	41324	1	Little	8
150.3866666666667	0	n/a	90233	KeyDown	41324	3	Middle	8
150.5066666666667	0	n/a	90305	KeyDown	41324	2	Ring	8
150.7083333333333	0	n/a	90426	KeyDown	41324	4	Index	8
150.8683333333333	0	n/a	90522	KeyDown	41324	4	Index	8
151.0316666666667	0	n/a	90620	KeyDown	41324	1	Little	8
151.2466666666667	0	n/a	90749	KeyDown	41324	3	Middle	8
151.3700000000000	0	n/a	90823	KeyDown	41324	2	Ring	8
151.5666666666667	0	n/a	90941	KeyDown	41324	4	Index	8
151.7300000000000	0	n/a	91039	KeyDown	41324	4	Index	8
151.8950000000000	0	n/a	91138	KeyDown	41324	1	Little	8
152.1300000000000	0	n/a	91279	KeyDown	41324	3	Middle	8
152.2533333333333	0	n/a	91353	KeyDown	41324	2	Ring	8
152.4350000000000	0	n/a	91462	KeyDown	41324	4	Index	8
152.6166666666667	0	n/a	91571	KeyDown	41324	4	Index	8
152.7716666666667	0	n/a	91664	KeyDown	41324	1	Little	8
153.0150000000000	0	n/a	91810	KeyDown	41324	3	Middle	8
153.1400000000000	0	n/a	91885	KeyDown	41324	2	Ring	8
153.3200000000000	0	n/a	91993	KeyDown	41324	4	Index	8
153.4900000000000	0	n/a	92095	KeyDown	41324	4	Index	8
153.5933333333333	0	n/a	92157	KeyDown	41324	1	Little	8
153.9116666666667	0	n/a	92348	KeyDown	41324	3	Middle	8
154.0550000000000	0	n/a	92434	KeyDown	41324	2	Ring	8
154.2350000000000	0	n/a	92542	KeyDown	41324	4	Index	8
154.4266666666667	0	n/a	92657	KeyDown	41324	4	Index	8
154.5700000000000	0	n/a	92743	KeyDown	41324	1	Little	8
154.8366666666667	0	n/a	92903	KeyDown	41324	3	Middle	8
155.0000000000000	0	n/a	93001	KeyDown	41324	2	Ring	8
155.1483333333333	0	n/a	93090	KeyDown	41324	4	Index	8
155.3033333333333	0	n/a	93183	KeyDown	41324	4	Index	8
155.4416666666667	0	n/a	93266	KeyDown	41324	1	Little	8
155.6766666666667	0	n/a	93407	KeyDown	41324	3	Middle	8
155.8650000000000	0	n/a	93520	KeyDown	41324	2	Ring	8
156.1116666666667	0	n/a	93668	KeyDown	41324	4	Index	8
156.2600000000000	0	n/a	93757	KeyDown	41324	4	Index	8
156.4250000000000	0	n/a	93856	KeyDown	41324	1	Little	8
156.7350000000000	0	n/a	94042	KeyDown	41324	3	Middle	8
156.9033333333333	0	n/a	94143	KeyDown	41324	2	Ring	8
157.1000000000000	0	n/a	94261	KeyDown	41324	4	Index	8
157.2516666666667	0	n/a	94352	KeyDown	41324	4	Index	8
157.3816666666667	0	n/a	94430	KeyDown	41324	1	Little	8
157.6300000000000	0	n/a	94579	KeyDown	41324	3	Middle	8
157.7333333333333	0	n/a	94641	KeyDown	41324	2	Ring	8
157.9133333333334	0	n/a	94749	KeyDown	41324	4	Index	8
158.0666666666667	0	n/a	94841	KeyDown	41324	4	Index	8
158.2250000000000	0	n/a	94936	KeyDown	41324	1	Little	8
158.4250000000000	0	n/a	95056	KeyDown	41324	3	Middle	8
158.5600000000000	0	n/a	95137	KeyDown	41324	2	Ring	8
158.7383333333333	0	n/a	95244	KeyDown	41324	4	Index	8
158.9016666666667	0	n/a	95342	KeyDown	41324	4	Index	8
159.0500000000000	0	n/a	95431	KeyDown	41324	1	Little	8
159.2400000000000	0	n/a	95545	KeyDown	41324	3	Middle	8
159.3950000000000	0	n/a	95638	KeyDown	41324	2	Ring	8
159.5900000000000	0	n/a	95755	KeyDown	41324	4	Index	8
159.7333333333333	0	n/a	95841	KeyDown	41324	4	Index	8
159.7750000000000	0	n/a	95866	StopPractice	41324	n/a	n/a	8
159.7766666666667	0	n/a	95867	StartRest	XXXXX	n/a	n/a	8
169.8183333333334	0	n/a	101892	StopRest	XXXXX	n/a	n/a	8
169.8200000000000	0	UPPT001	101893	StartPractice	41324	n/a	n/a	9
170.2300000000000	0	n/a	102139	KeyDown	41324	4	Index	9
170.3800000000000	0	n/a	102229	KeyDown	41324	1	Little	9
170.5716666666667	0	n/a	102344	KeyDown	41324	3	Middle	9
170.6783333333333	0	n/a	102408	KeyDown	41324	2	Ring	9
170.8583333333333	0	n/a	102516	KeyDown	41324	4	Index	9
171.0166666666667	0	n/a	102611	KeyDown	41324	4	Index	9
171.1666666666667	0	n/a	102701	KeyDown	41324	1	Little	9
171.3650000000000	0	n/a	102820	KeyDown	41324	3	Middle	9
171.4966666666667	0	n/a	102899	KeyDown	41324	2	Ring	9
171.6850000000000	0	n/a	103012	KeyDown	41324	4	Index	9
171.8283333333333	0	n/a	103098	KeyDown	41324	4	Index	9
171.9816666666667	0	n/a	103190	KeyDown	41324	1	Little	9
172.1966666666667	0	n/a	103319	KeyDown	41324	3	Middle	9
172.3083333333333	0	n/a	103386	KeyDown	41324	2	Ring	9
172.4733333333334	0	n/a	103485	KeyDown	41324	4	Index	9
172.6250000000000	0	n/a	103576	KeyDown	41324	4	Index	9
172.7833333333333	0	n/a	103671	KeyDown	41324	1	Little	9
172.9816666666667	0	n/a	103790	KeyDown	41324	3	Middle	9
173.1483333333333	0	n/a	103890	KeyDown	41324	2	Ring	9
173.3100000000000	0	n/a	103987	KeyDown	41324	4	Index	9
173.4650000000000	0	n/a	104080	KeyDown	41324	4	Index	9
173.5950000000000	0	n/a	104158	KeyDown	41324	1	Little	9
173.8116666666667	0	n/a	104288	KeyDown	41324	3	Middle	9
173.9133333333334	0	n/a	104349	KeyDown	41324	2	Ring	9
174.0816666666667	0	n/a	104450	KeyDown	41324	4	Index	9
174.2183333333333	0	n/a	104532	KeyDown	41324	4	Index	9
174.3583333333333	0	n/a	104616	KeyDown	41324	1	Little	9
174.5866666666667	0	n/a	104753	KeyDown	41324	3	Middle	9
174.7450000000000	0	n/a	104848	KeyDown	41324	2	Ring	9
174.8866666666667	0	n/a	104933	KeyDown	41324	4	Index	9
175.0283333333333	0	n/a	105018	KeyDown	41324	4	Index	9
175.1733333333333	0	n/a	105105	KeyDown	41324	1	Little	9
175.3783333333334	0	n/a	105228	KeyDown	41324	3	Middle	9
175.5150000000000	0	n/a	105310	KeyDown	41324	2	Ring	9
175.6516666666667	0	n/a	105392	KeyDown	41324	4	Index	9
175.7916666666667	0	n/a	105476	KeyDown	41324	4	Index	9
175.9233333333333	0	n/a	105555	KeyDown	41324	1	Little	9
176.1350000000000	0	n/a	105682	KeyDown	41324	3	Middle	9
176.2633333333333	0	n/a	105759	KeyDown	41324	2	Ring	9
176.4233333333333	0	n/a	105855	KeyDown	41324	4	Index	9
176.5683333333334	0	n/a	105942	KeyDown	41324	4	Index	9
176.7133333333333	0	n/a	106029	KeyDown	41324	1	Little	9
176.9050000000000	0	n/a	106144	KeyDown	41324	3	Middle	9
177.0316666666667	0	n/a	106220	KeyDown	41324	2	Ring	9
177.1683333333334	0	n/a	106302	KeyDown	41324	4	Index	9
177.3050000000000	0	n/a	106384	KeyDown	41324	4	Index	9
177.4400000000000	0	n/a	106465	KeyDown	41324	1	Little	9
177.6483333333333	0	n/a	106590	KeyDown	41324	3	Middle	9
177.7650000000000	0	n/a	106660	KeyDown	41324	2	Ring	9
177.9550000000000	0	n/a	106774	KeyDown	41324	4	Index	9
178.0916666666667	0	n/a	106856	KeyDown	41324	4	Index	9
178.2333333333333	0	n/a	106941	KeyDown	41324	1	Little	9
178.4483333333334	0	n/a	107070	KeyDown	41324	3	Middle	9
178.5733333333334	0	n/a	107145	KeyDown	41324	2	Ring	9
178.7216666666667	0	n/a	107234	KeyDown	41324	4	Index	9
178.8600000000000	0	n/a	107317	KeyDown	41324	4	Index	9
179.0016666666667	0	n/a	107402	KeyDown	41324	1	Little	9
179.2166666666667	0	n/a	107531	KeyDown	41324	3	Middle	9
179.3483333333334	0	n/a	107610	KeyDown	41324	2	Ring	9
179.5250000000000	0	n/a	107716	KeyDown	41324	4	Index	9
179.6700000000000	0	n/a	107803	KeyDown	41324	4	Index	9
179.7800000000000	0	n/a	107869	KeyDown	41324	1	Little	9
179.8666666666667	0	n/a	107921	StopPractice	41324	n/a	n/a	9
179.8683333333333	0	n/a	107922	StartRest	XXXXX	n/a	n/a	9
189.9116666666667	0	n/a	113948	StopRest	XXXXX	n/a	n/a	9
