onset	duration	channel	onset_sample_idx	event_type	target_sequence	keypress_id	finger_label	trial_number
3.1300000000000	0	UPPT001	1879	StartPractice	21342	n/a	n/a	1
4.8566666666667	0	n/a	2915	KeyDown	21342	2	Ring	1
5.1433333333333	0	n/a	3087	KeyDown	21342	1	Little	1
5.7366666666667	0	n/a	3443	KeyDown	21342	3	Middle	1
6.1066666666667	0	n/a	3665	KeyDown	21342	4	Index	1
6.4633333333333	0	n/a	3879	KeyDown	21342	2	Ring	1
7.1916666666667	0	n/a	4316	KeyDown	21342	2	Ring	1
7.5966666666667	0	n/a	4559	KeyDown	21342	1	Little	1
8.1600000000000	0	n/a	4897	KeyDown	21342	3	Middle	1
8.4866666666667	0	n/a	5093	KeyDown	21342	4	Index	1
8.8800000000000	0	n/a	5329	KeyDown	21342	2	Ring	1
9.4133333333333	0	n/a	5649	KeyDown	21342	2	Ring	1
9.7666666666667	0	n/a	5861	KeyDown	21342	1	Little	1
10.2116666666667	0	n/a	6128	KeyDown	21342	3	Middle	1
10.4616666666667	0	n/a	6278	KeyDown	21342	2	Ring	1
10.7666666666667	0	n/a	6461	KeyDown	21342	4	Index	1
11.3550000000000	0	n/a	6814	KeyDown	21342	2	Ring	1
11.7283333333333	0	n/a	7038	KeyDown	21342	1	Little	1
12.1216666666667	0	n/a	7274	KeyDown	21342	3	Middle	1
12.6350000000000	0	n/a	7582	KeyDown	21342	4	Index	1
13.0116666666667	0	n/a	7808	KeyDown	21342	2	Ring	1
13.1683333333333	0	n/a	7902	StopPractice	21342	n/a	n/a	1
13.1700000000000	0	n/a	7903	StartRest	XXXXX	n/a	n/a	1
23.3000000000000	0	n/a	13981	StopRest	XXXXX	n/a	n/a	1
23.3016666666667	0	UPPT001	13982	StartPractice	42431	n/a	n/a	2
24.2600000000000	0	n/a	14557	KeyDown	42431	4	Index	2
24.6383333333333	0	n/a	14784	KeyDown	42431	2	Ring	2
24.9083333333333	0	n/a	14946	KeyDown	42431	4	Index	2
25.2133333333333	0	n/a	15129	KeyDown	42431	3	Middle	2
25.5783333333333	0	n/a	15348	KeyDown	42431	1	Little	2
26.2100000000000	0	n/a	15727	KeyDown	42431	4	Index	2
26.6150000000000	0	n/a	15970	KeyDown	42431	2	Ring	2
26.9083333333333	0	n/a	16146	KeyDown	42431	4	Index	2
27.2933333333333	0	n/a	16377	KeyDown	42431	3	Middle	2
27.7100000000000	0	n/a	16627	KeyDown	42431	1	Little	2
28.2183333333333	0	n/a	16932	KeyDown	42431	4	Index	2
28.8066666666667	0	n/a	17285	KeyDown	42431	2	Ring	2
29.5566666666667	0	n/a	17735	KeyDown	42431	4	Index	2
29.8783333333333	0	n/a	17928	KeyDown	42431	3	Middle	2
30.2166666666667	0	n/a	18131	KeyDown	42431	1	Little	2
30.7833333333333	0	n/a	18471	KeyDown	42431	4	Index	2
31.2050000000000	0	n/a	18724	KeyDown	42431	2	Ring	2
31.6766666666667	0	n/a	19007	KeyDown	42431	4	Index	2
32.1083333333333	0	n/a	19266	KeyDown	42431	3	Middle	2
32.6250000000000	0	n/a	19576	KeyDown	42431	1	Little	2
33.3400000000000	0	n/a	20005	StopPractice	42431	n/a	n/a	2
33.3416666666667	0	n/a	20006	StartRest	XXXXX	n/a	n/a	2
43.3750000000000	0	n/a	26026	StopRest	XXXXX	n/a	n/a	2
43.3766666666667	0	UPPT001	26027	StartPractice	34231	n/a	n/a	3
44.6850000000000	0	n/a	26812	KeyDown	34231	3	Middle	3
45.0533333333333	0	n/a	27033	KeyDown	34231	4	Index	3
45.3650000000000	0	n/a	27220	KeyDown	34231	2	Ring	3
45.6150000000000	0	n/a	27370	KeyDown	34231	3	Middle	3
45.8733333333333	0	n/a	27525	KeyDown	34231	1	Little	3
46.3533333333333	0	n/a	27813	KeyDown	34231	4	Index	3
47.5650000000000	0	n/a	28540	KeyDown	34231	3	Middle	3
47.8250000000000	0	n/a	28696	KeyDown	34231	4	Index	3
48.3250000000000	0	n/a	28996	KeyDown	34231	2	Ring	3
48.6766666666667	0	n/a	29207	KeyDown	34231	3	Middle	3
49.0116666666667	0	n/a	29408	KeyDown	34231	1	Little	3
49.9266666666667	0	n/a	29957	KeyDown	34231	3	Middle	3
50.2533333333333	0	n/a	30153	KeyDown	34231	4	Index	3
50.9283333333333	0	n/a	30558	KeyDown	34231	2	Ring	3
51.1633333333333	0	n/a	30699	KeyDown	34231	3	Middle	3
51.4283333333333	0	n/a	30858	KeyDown	34231	1	Little	3
52.5733333333333	0	n/a	31545	KeyDown	34231	3	Middle	3
52.8850000000000	0	n/a	31732	KeyDown	34231	4	Index	3
53.3183333333333	0	n/a	31992	KeyDown	34231	2	Ring	3
53.4150000000000	0	n/a	32050	StopPractice	34231	n/a	n/a	3
53.4166666666667	0	n/a	32051	StartRest	XXXXX	n/a	n/a	3
63.4500000000000	0	n/a	38071	StopRest	XXXXX	n/a	n/a	3
63.4516666666667	0	UPPT001	38072	StartPractice	14342	n/a	n/a	4
64.3283333333333	0	n/a	38598	KeyDown	14342	1	Little	4
64.6633333333333	0	n/a	38799	KeyDown	14342	4	Index	4
65.0050000000000	0	n/a	39004	KeyDown	14342	3	Middle	4
65.3150000000000	0	n/a	39190	KeyDown	14342	4	Index	4
65.6383333333333	0	n/a	39384	KeyDown	14342	2	Ring	4
66.4833333333333	0	n/a	39891	KeyDown	14342	1	Little	4
66.8950000000000	0	n/a	40138	KeyDown	14342	4	Index	4
67.2933333333333	0	n/a	40377	KeyDown	14342	3	Middle	4
67.7050000000000	0	n/a	40624	KeyDown	14342	4	Index	4
68.1400000000000	0	n/a	40885	KeyDown	14342	2	Ring	4
69.1033333333333	0	n/a	41463	KeyDown	14342	1	Little	4
69.5533333333333	0	n/a	41733	KeyDown	14342	4	Index	4
69.9800000000000	0	n/a	41989	KeyDown	14342	3	Middle	4
70.3683333333333	0	n/a	42222	KeyDown	14342	4	Index	4
70.7350000000000	0	n/a	42442	KeyDown	14342	2	Ring	4
71.6933333333333	0	n/a	43017	KeyDown	14342	1	Little	4
72.3583333333333	0	n/a	43416	KeyDown	14342	4	Index	4
72.8883333333333	0	n/a	43734	KeyDown	14342	3	Middle	4
73.3383333333333	0	n/a	44004	KeyDown	14342	4	Index	4
73.4900000000000	0	n/a	44095	StopPractice	14342	n/a	n/a	4
73.4916666666667	0	n/a	44096	StartRest	XXXXX	n/a	n/a	4
83.5233333333333	0	n/a	50115	StopRest	XXXXX	n/a	n/a	4
83.5250000000000	0	UPPT001	50116	StartPractice	32431	n/a	n/a	5
84.2333333333333	0	n/a	50541	KeyDown	32431	3	Middle	5
84.6850000000000	0	n/a	50812	KeyDown	32431	3	Middle	5
85.0116666666667	0	n/a	51008	KeyDown	32431	2	Ring	5
85.6166666666667	0	n/a	51371	KeyDown	32431	4	Index	5
86.0116666666667	0	n/a	51608	KeyDown	32431	3	Middle	5
86.3600000000000	0	n/a	51817	KeyDown	32431	1	Little	5
87.1166666666667	0	n/a	52271	KeyDown	32431	3	Middle	5
87.5333333333333	0	n/a	52521	KeyDown	32431	2	Ring	5
87.9550000000000	0	n/a	52774	KeyDown	32431	4	Index	5
88.5716666666667	0	n/a	53144	KeyDown	32431	3	Middle	5
88.9366666666667	0	n/a	53363	KeyDown	32431	1	Little	5
89.8533333333333	0	n/a	53913	KeyDown	32431	3	Middle	5
90.2483333333333	0	n/a	54150	KeyDown	32431	2	Ring	5
90.6633333333333	0	n/a	54399	KeyDown	32431	4	Index	5
91.2383333333333	0	n/a	54744	KeyDown	32431	3	Middle	5
91.5716666666667	0	n/a	54944	KeyDown	32431	1	Little	5
92.6600000000000	0	n/a	55597	KeyDown	32431	3	Middle	5
93.0000000000000	0	n/a	55801	KeyDown	32431	2	Ring	5
93.4066666666667	0	n/a	56045	KeyDown	32431	4	Index	5
93.5633333333333	0	n/a	56139	StopPractice	32431	n/a	n/a	5
93.5650000000000	0	n/a	56140	StartRest	XXXXX	n/a	n/a	5
103.6000000000000	0	n/a	62161	StopRest	XXXXX	n/a	n/a	5
103.6016666666667	0	UPPT001	62162	StartPractice	14231	n/a	n/a	6
104.4783333333333	0	n/a	62688	KeyDown	14231	1	Little	6
104.7783333333333	0	n/a	62868	KeyDown	14231	4	Index	6
105.1233333333333	0	n/a	63075	KeyDown	14231	2	Ring	6
105.3800000000000	0	n/a	63229	KeyDown	14231	3	Middle	6
105.6583333333333	0	n/a	63396	KeyDown	14231	1	Little	6
106.6250000000000	0	n/a	63976	KeyDown	14231	1	Little	6
107.0750000000000	0	n/a	64246	KeyDown	14231	4	Index	6
107.7333333333333	0	n/a	64641	KeyDown	14231	2	Ring	6
108.1316666666667	0	n/a	64880	KeyDown	14231	3	Middle	6
108.5933333333333	0	n/a	65157	KeyDown	14231	1	Little	6
109.3000000000000	0	n/a	65581	KeyDown	14231	1	Little	6
109.6833333333333	0	n/a	65811	KeyDown	14231	4	Index	6
110.0683333333333	0	n/a	66042	KeyDown	14231	2	Ring	6
110.3500000000000	0	n/a	66211	KeyDown	14231	3	Middle	6
110.6083333333333	0	n/a	66366	KeyDown	14231	1	Little	6
111.3583333333333	0	n/a	66816	KeyDown	14231	1	Little	6
111.7316666666667	0	n/a	67040	KeyDown	14231	4	Index	6
112.1966666666667	0	n/a	67319	KeyDown	14231	2	Ring	6
112.4783333333333	0	n/a	67488	KeyDown	14231	3	Middle	6
112.7816666666667	0	n/a	67670	KeyDown	14231	1	Little	6
113.2650000000000	0	n/a	67960	KeyDown	14231	1	Little	6
113.6400000000000	0	n/a	68185	StopPractice	14231	n/a	n/a	6
113.6416666666667	0	n/a	68186	StartRest	XXXXX	n/a	n/a	6
123.6750000000000	0	n/a	74206	StopRest	XXXXX	n/a	n/a	6
123.6766666666667	0	UPPT001	74207	StartPractice	32421	n/a	n/a	7
124.9266666666667	0	n/a	74957	KeyDown	32421	3	Middle	7
125.3283333333333	0	n/a	75198	KeyDown	32421	2	Ring	7
125.7100000000000	0	n/a	75427	KeyDown	32421	4	Index	7
126.0666666666667	0	n/a	75641	KeyDown	32421	2	Ring	7
126.3783333333333	0	n/a	75828	KeyDown	32421	1	Little	7
126.8850000000000	0	n/a	76132	KeyDown	32421	3	Middle	7
127.2833333333333	0	n/a	76371	KeyDown	32421	2	Ring	7
127.6016666666667	0	n/a	76562	KeyDown	32421	4	Index	7
127.8733333333333	0	n/a	76725	KeyDown	32421	2	Ring	7
128.2233333333333	0	n/a	76935	KeyDown	32421	1	Little	7
128.9900000000000	0	n/a	77395	KeyDown	32421	3	Middle	7
129.4133333333334	0	n/a	77649	KeyDown	32421	2	Ring	7
129.8166666666667	0	n/a	77891	KeyDown	32421	4	Index	7
130.1566666666667	0	n/a	78095	KeyDown	32421	2	Ring	7
130.4366666666667	0	n/a	78263	KeyDown	32421	1	Little	7
131.0333333333333	0	n/a	78621	KeyDown	32421	3	Middle	7
131.4083333333333	0	n/a	78846	KeyDown	32421	2	Ring	7
131.8100000000000	0	n/a	79087	KeyDown	32421	4	Index	7
132.2783333333333	0	n/a	79368	KeyDown	32421	2	Ring	7
132.6116666666667	0	n/a	79568	KeyDown	32421	1	Little	7
133.5833333333333	0	n/a	80151	KeyDown	32421	3	Middle	7
133.7150000000000	0	n/a	80230	StopPractice	32421	n/a	n/a	7
133.7166666666667	0	n/a	80231	StartRest	XXXXX	n/a	n/a	7
143.7483333333333	0	n/a	86250	StopRest	XXXXX	n/a	n/a	7
143.7500000000000	0	UPPT001	86251	StartPractice	23142	n/a	n/a	8
144.7650000000000	0	n/a	86860	KeyDown	23142	2	Ring	8
145.1266666666667	0	n/a	87077	KeyDown	23142	3	Middle	8
145.4366666666667	0	n/a	87263	KeyDown	23142	1	Little	8
145.7133333333333	0	n/a	87429	KeyDown	23142	4	Index	8
146.0383333333334	0	n/a	87624	KeyDown	23142	2	Ring	8
146.6066666666667	0	n/a	87965	KeyDown	23142	2	Ring	8
147.0483333333333	0	n/a	88230	KeyDown	23142	3	Middle	8
147.4216666666667	0	n/a	88454	KeyDown	23142	1	Little	8
147.8083333333333	0	n/a	88686	KeyDown	23142	4	Index	8
149.1116666666667	0	n/a	89468	KeyDown	23142	2	Ring	8
149.8966666666667	0	n/a	89939	KeyDown	23142	2	Ring	8
150.6050000000000	0	n/a	90364	KeyDown	23142	3	Middle	8
151.0116666666667	0	n/a	90608	KeyDown	23142	1	Little	8
151.3983333333333	0	n/a	90840	KeyDown	23142	4	Index	8
151.8183333333334	0	n/a	91092	KeyDown	23142	2	Ring	8
152.5166666666667	0	n/a	91511	KeyDown	23142	2	Ring	8
153.0483333333333	0	n/a	91830	KeyDown	23142	3	Middle	8
153.4150000000000	0	n/a	92050	KeyDown	23142	1	Little	8
153.7883333333334	0	n/a	92274	StopPractice	23142	n/a	n/a	8
153.7900000000000	0	n/a	92275	StartRest	XXXXX	n/a	n/a	8
163.8233333333334	0	n/a	98295	StopRest	XXXXX	n/a	n/a	8
163.8250000000000	0	UPPT001	98296	StartPractice	42314	n/a	n/a	9
164.6983333333334	0	n/a	98820	KeyDown	42314	4	Index	9
165.0066666666667	0	n/a	99005	KeyDown	42314	2	Ring	9
165.2800000000000	0	n/a	99169	KeyDown	42314	3	Middle	9
165.5500000000000	0	n/a	99331	KeyDown	42314	1	Little	9
165.8716666666667	0	n/a	99524	KeyDown	42314	4	Index	9
166.4266666666667	0	n/a	99857	KeyDown	42314	4	Index	9
166.7833333333333	0	n/a	100071	KeyDown	42314	2	Ring	9
167.0750000000000	0	n/a	100246	KeyDown	42314	3	Middle	9
167.3333333333333	0	n/a	100401	KeyDown	42314	1	Little	9
167.6133333333333	0	n/a	100569	KeyDown	42314	4	Index	9
168.0466666666667	0	n/a	100829	KeyDown	42314	4	Index	9
168.4650000000000	0	n/a	101080	KeyDown	42314	2	Ring	9
168.7866666666667	0	n/a	101273	KeyDown	42314	3	Middle	9
169.0200000000000	0	n/a	101413	KeyDown	42314	1	Little	9
169.3200000000000	0	n/a	101593	KeyDown	42314	4	Index	9
169.9533333333333	0	n/a	101973	KeyDown	42314	4	Index	9
170.3433333333333	0	n/a	102207	KeyDown	42314	2	Ring	9
170.6166666666667	0	n/a	102371	KeyDown	42314	3	Middle	9
170.8483333333334	0	n/a	102510	KeyDown	42314	1	Little	9
171.1233333333333	0	n/a	102675	KeyDown	42314	4	Index	9
171.5900000000000	0	n/a	102955	KeyDown	42314	4	Index	9
171.9866666666667	0	n/a	103193	KeyDown	42314	2	Ring	9
172.2466666666667	0	n/a	103349	KeyDown	42314	3	Middle	9
172.5233333333333	0	n/a	103515	KeyDown	42314	1	Little	9
172.8783333333333	0	n/a	103728	KeyDown	42314	4	Index	9
173.4216666666667	0	n/a	104054	KeyDown	42314	4	Index	9
173.8133333333333	0	n/a	104289	KeyDown	42314	2	Ring	9
173.8633333333333	0	n/a	104319	StopPractice	42314	n/a	n/a	9
173.8650000000000	0	n/a	104320	StartRest	XXXXX	n/a	n/a	9
183.9000000000000	0	n/a	110341	StopRest	XXXXX	n/a	n/a	9
