onset	duration	channel	onset_sample_idx	event_type	target_sequence	keypress_id	finger_label	trial_number
13.5966666666667	0	UPPT001	8159	StartPractice	41324	n/a	n/a	1
17.4533333333333	0	n/a	10473	KeyDown	41324	4	Index	1
19.4883333333333	0	n/a	11694	KeyDown	41324	1	Little	1
21.2033333333333	0	n/a	12723	KeyDown	41324	3	Middle	1
22.1733333333333	0	n/a	13305	KeyDown	41324	2	Ring	1
23.6350000000000	0	n/a	14182	StopPractice	41324	n/a	n/a	1
23.6366666666667	0	n/a	14183	StartRest	XXXXX	n/a	n/a	1
33.6700000000000	0	n/a	20203	StopRest	XXXXX	n/a	n/a	1
33.6716666666667	0	UPPT001	20204	StartPractice	41324	n/a	n/a	2
34.8100000000000	0	n/a	20887	KeyDown	41324	4	Index	2
35.8800000000000	0	n/a	21529	KeyDown	41324	1	Little	2
37.5916666666667	0	n/a	22556	KeyDown	41324	3	Middle	2
38.4000000000000	0	n/a	23041	KeyDown	41324	2	Ring	2
39.3066666666667	0	n/a	23585	KeyDown	41324	4	Index	2
43.7100000000000	0	n/a	26227	StopPractice	41324	n/a	n/a	2
43.7116666666667	0	n/a	26228	StartRest	XXXXX	n/a	n/a	2
53.7450000000000	0	n/a	32248	StopRest	XXXXX	n/a	n/a	2
53.7466666666667	0	UPPT001	32249	StartPractice	41324	n/a	n/a	3
54.7833333333333	0	n/a	32871	KeyDown	41324	4	Index	3
55.2166666666667	0	n/a	33131	KeyDown	41324	1	Little	3
55.8250000000000	0	n/a	33496	KeyDown	41324	3	Middle	3
56.2883333333333	0	n/a	33774	KeyDown	41324	2	Ring	3
56.7150000000000	0	n/a	34030	KeyDown	41324	4	Index	3
63.7850000000000	0	n/a	38272	StopPractice	41324	n/a	n/a	3
63.7866666666667	0	n/a	38273	StartRest	XXXXX	n/a	n/a	3
73.8200000000000	0	n/a	44293	StopRest	XXXXX	n/a	n/a	3
73.8216666666667	0	UPPT001	44294	StartPractice	41324	n/a	n/a	4
74.7333333333333	0	n/a	44841	KeyDown	41324	4	Index	4
75.2733333333333	0	n/a	45165	KeyDown	41324	1	Little	4
75.8250000000000	0	n/a	45496	KeyDown	41324	3	Middle	4
76.1433333333333	0	n/a	45687	KeyDown	41324	2	Ring	4
76.4250000000000	0	n/a	45856	KeyDown	41324	4	Index	4
77.0116666666667	0	n/a	46208	KeyDown	41324	4	Index	4
77.5033333333333	0	n/a	46503	KeyDown	41324	1	Little	4
77.9966666666667	0	n/a	46799	KeyDown	41324	3	Middle	4
78.2250000000000	0	n/a	46936	KeyDown	41324	2	Ring	4
78.5600000000000	0	n/a	47137	KeyDown	41324	4	Index	4
79.0966666666667	0	n/a	47459	KeyDown	41324	4	Index	4
79.5700000000000	0	n/a	47743	KeyDown	41324	1	Little	4
79.9316666666667	0	n/a	47960	KeyDown	41324	3	Middle	4
80.1366666666667	0	n/a	48083	KeyDown	41324	2	Ring	4
80.3983333333333	0	n/a	48240	KeyDown	41324	4	Index	4
81.3650000000000	0	n/a	48820	KeyDown	41324	4	Index	4
82.0250000000000	0	n/a	49216	KeyDown	41324	1	Little	4
82.5050000000000	0	n/a	49504	KeyDown	41324	3	Middle	4
82.6966666666667	0	n/a	49619	KeyDown	41324	2	Ring	4
82.9383333333333	0	n/a	49764	KeyDown	41324	4	Index	4
83.5933333333333	0	n/a	50157	KeyDown	41324	4	Index	4
83.8600000000000	0	n/a	50317	StopPractice	41324	n/a	n/a	4
83.8616666666667	0	n/a	50318	StartRest	XXXXX	n/a	n/a	4
93.8950000000000	0	n/a	56338	StopRest	XXXXX	n/a	n/a	4
93.8966666666667	0	UPPT001	56339	StartPractice	41324	n/a	n/a	5
94.6033333333333	0	n/a	56763	KeyDown	41324	4	Index	5
95.1100000000000	0	n/a	57067	KeyDown	41324	1	Little	5
95.4833333333333	0	n/a	57291	KeyDown	41324	3	Middle	5
95.6833333333333	0	n/a	57411	KeyDown	41324	2	Ring	5
95.9400000000000	0	n/a	57565	KeyDown	41324	4	Index	5
96.5350000000000	0	n/a	57922	KeyDown	41324	4	Index	5
97.0300000000000	0	n/a	58219	KeyDown	41324	1	Little	5
99.2600000000000	0	n/a	59557	KeyDown	41324	3	Middle	5
99.4300000000000	0	n/a	59659	KeyDown	41324	2	Ring	5
99.7016666666667	0	n/a	59822	KeyDown	41324	4	Index	5
100.3200000000000	0	n/a	60193	KeyDown	41324	4	Index	5
100.8000000000000	0	n/a	60481	KeyDown	41324	1	Little	5
101.5483333333333	0	n/a	60930	KeyDown	41324	3	Middle	5
101.7250000000000	0	n/a	61036	KeyDown	41324	2	Ring	5
101.9800000000000	0	n/a	61189	KeyDown	41324	4	Index	5
102.5333333333333	0	n/a	61521	KeyDown	41324	4	Index	5
103.1300000000000	0	n/a	61879	KeyDown	41324	1	Little	5
103.6216666666667	0	n/a	62174	KeyDown	41324	3	Middle	5
103.7750000000000	0	n/a	62266	KeyDown	41324	2	Ring	5
103.9350000000000	0	n/a	62362	StopPractice	41324	n/a	n/a	5
103.9366666666667	0	n/a	62363	StartRest	XXXXX	n/a	n/a	5
113.9700000000000	0	n/a	68383	StopRest	XXXXX	n/a	n/a	5
113.9716666666667	0	UPPT001	68384	StartPractice	41324	n/a	n/a	6
114.5383333333333	0	n/a	68724	KeyDown	41324	4	Index	6
114.9050000000000	0	n/a	68944	KeyDown	41324	1	Little	6
115.2683333333333	0	n/a	69162	KeyDown	41324	3	Middle	6
115.4350000000000	0	n/a	69262	KeyDown	41324	2	Ring	6
115.6716666666667	0	n/a	69404	KeyDown	41324	4	Index	6
116.3800000000000	0	n/a	69829	KeyDown	41324	4	Index	6
116.7850000000000	0	n/a	70072	KeyDown	41324	1	Little	6
117.0633333333333	0	n/a	70239	KeyDown	41324	3	Middle	6
117.2383333333333	0	n/a	70344	KeyDown	41324	2	Ring	6
117.4733333333333	0	n/a	70485	KeyDown	41324	4	Index	6
118.0266666666667	0	n/a	70817	KeyDown	41324	4	Index	6
118.4250000000000	0	n/a	71056	KeyDown	41324	1	Little	6
118.7100000000000	0	n/a	71227	KeyDown	41324	3	Middle	6
118.8483333333333	0	n/a	71310	KeyDown	41324	2	Ring	6
119.0433333333333	0	n/a	71427	KeyDown	41324	4	Index	6
119.6700000000000	0	n/a	71803	KeyDown	41324	4	Index	6
120.0333333333333	0	n/a	72021	KeyDown	41324	1	Little	6
120.3783333333333	0	n/a	72228	KeyDown	41324	3	Middle	6
120.5100000000000	0	n/a	72307	KeyDown	41324	2	Ring	6
120.6916666666667	0	n/a	72416	KeyDown	41324	4	Index	6
121.2383333333333	0	n/a	72744	KeyDown	41324	4	Index	6
121.6083333333333	0	n/a	72966	KeyDown	41324	1	Little	6
122.0550000000000	0	n/a	73234	KeyDown	41324	3	Middle	6
122.2450000000000	0	n/a	73348	KeyDown	41324	2	Ring	6
122.4416666666667	0	n/a	73466	KeyDown	41324	4	Index	6
122.9283333333333	0	n/a	73758	KeyDown	41324	4	Index	6
123.3733333333333	0	n/a	74025	KeyDown	41324	1	Little	6
123.7183333333333	0	n/a	74232	KeyDown	41324	3	Middle	6
123.8800000000000	0	n/a	74329	KeyDown	41324	2	Ring	6
124.0100000000000	0	n/a	74407	StopPractice	41324	n/a	n/a	6
124.0116666666667	0	n/a	74408	StartRest	XXXXX	n/a	n/a	6
134.0450000000000	0	n/a	80428	StopRest	XXXXX	n/a	n/a	6
134.0466666666667	0	UPPT001	80429	StartPractice	41324	n/a	n/a	7
134.7983333333333	0	n/a	80880	KeyDown	41324	4	Index	7
135.1400000000000	0	n/a	81085	KeyDown	41324	1	Little	7
135.4800000000000	0	n/a	81289	KeyDown	41324	3	Middle	7
135.6033333333334	0	n/a	81363	KeyDown	41324	2	Ring	7
135.9000000000000	0	n/a	81541	KeyDown	41324	4	Index	7
136.4100000000000	0	n/a	81847	KeyDown	41324	4	Index	7
136.7450000000000	0	n/a	82048	KeyDown	41324	1	Little	7
137.0750000000000	0	n/a	82246	KeyDown	41324	3	Middle	7
137.2483333333333	0	n/a	82350	KeyDown	41324	2	Ring	7
137.5550000000000	0	n/a	82534	KeyDown	41324	4	Index	7
138.3000000000000	0	n/a	82981	KeyDown	41324	4	Index	7
138.6216666666667	0	n/a	83174	KeyDown	41324	1	Little	7
138.9650000000000	0	n/a	83380	KeyDown	41324	3	Middle	7
139.1716666666667	0	n/a	83504	KeyDown	41324	2	Ring	7
139.4500000000000	0	n/a	83671	KeyDown	41324	4	Index	7
140.0416666666667	0	n/a	84026	KeyDown	41324	4	Index	7
140.4783333333334	0	n/a	84288	KeyDown	41324	1	Little	7
140.8333333333333	0	n/a	84501	KeyDown	41324	3	Middle	7
140.9850000000000	0	n/a	84592	KeyDown	41324	2	Ring	7
141.2383333333333	0	n/a	84744	KeyDown	41324	4	Index	7
141.8383333333333	0	n/a	85104	KeyDown	41324	4	Index	7
142.2383333333333	0	n/a	85344	KeyDown	41324	1	Little	7
142.5733333333334	0	n/a	85545	KeyDown	41324	3	Middle	7
142.7033333333333	0	n/a	85623	KeyDown	41324	2	Ring	7
142.9483333333334	0	n/a	85770	KeyDown	41324	4	Index	7
143.5000000000000	0	n/a	86101	KeyDown	41324	4	Index	7
143.9100000000000	0	n/a	86347	KeyDown	41324	1	Little	7
144.0850000000000	0	n/a	86452	StopPractice	41324	n/a	n/a	7
144.0866666666667	0	n/a	86453	StartRest	XXXXX	n/a	n/a	7
154.1200000000000	0	n/a	92473	StopRest	XXXXX	n/a	n/a	7
154.1216666666667	0	UPPT001	92474	StartPractice	41324	n/a	n/a	8
154.7650000000000	0	n/a	92860	KeyDown	41324	4	Index	8
155.1700000000000	0	n/a	93103	KeyDown	41324	1	Little	8
155.5116666666667	0	n/a	93308	KeyDown	41324	3	Middle	8
155.6283333333333	0	n/a	93378	KeyDown	41324	2	Ring	8
155.8350000000000	0	n/a	93502	KeyDown	41324	4	Index	8
156.4300000000000	0	n/a	93859	KeyDown	41324	4	Index	8
156.8250000000000	0	n/a	94096	KeyDown	41324	1	Little	8
157.1133333333333	0	n/a	94269	KeyDown	41324	3	Middle	8
157.3100000000000	0	n/a	94387	KeyDown	41324	2	Ring	8
157.6250000000000	0	n/a	94576	KeyDown	41324	4	Index	8
158.1516666666667	0	n/a	94892	KeyDown	41324	4	Index	8
158.5683333333334	0	n/a	95142	KeyDown	41324	1	Little	8
158.8983333333333	0	n/a	95340	KeyDown	41324	3	Middle	8
159.1133333333333	0	n/a	95469	KeyDown	41324	2	Ring	8
159.3516666666667	0	n/a	95612	KeyDown	41324	4	Index	8
159.7866666666667	0	n/a	95873	KeyDown	41324	4	Index	8
160.5450000000000	0	n/a	96328	KeyDown	41324	1	Little	8
160.9966666666667	0	n/a	96599	KeyDown	41324	3	Middle	8
161.1933333333334	0	n/a	96717	KeyDown	41324	2	Ring	8
161.4050000000000	0	n/a	96844	KeyDown	41324	4	Index	8
161.8550000000000	0	n/a	97114	KeyDown	41324	4	Index	8
162.2433333333333	0	n/a	97347	KeyDown	41324	1	Little	8
162.5900000000000	0	n/a	97555	KeyDown	41324	3	Middle	8
162.7450000000000	0	n/a	97648	KeyDown	41324	2	Ring	8
162.9683333333333	0	n/a	97782	KeyDown	41324	4	Index	8
163.4750000000000	0	n/a	98086	KeyDown	41324	4	Index	8
163.8433333333333	0	n/a	98307	KeyDown	41324	1	Little	8
164.1600000000000	0	n/a	98497	StopPractice	41324	n/a	n/a	8
164.1616666666667	0	n/a	98498	StartRest	XXXXX	n/a	n/a	8
174.1933333333334	0	n/a	104517	StopRest	XXXXX	n/a	n/a	8
174.1950000000000	0	UPPT001	104518	StartPractice	41324	n/a	n/a	9
174.8566666666667	0	n/a	104915	KeyDown	41324	4	Index	9
175.2600000000000	0	n/a	105157	KeyDown	41324	1	Little	9
175.6216666666667	0	n/a	105374	KeyDown	41324	3	Middle	9
175.9750000000000	0	n/a	105586	KeyDown	41324	2	Ring	9
176.3533333333334	0	n/a	105813	KeyDown	41324	4	Index	9
176.9316666666667	0	n/a	106160	KeyDown	41324	4	Index	9
177.2833333333333	0	n/a	106371	KeyDown	41324	1	Little	9
177.5933333333333	0	n/a	106557	KeyDown	41324	3	Middle	9
177.7966666666667	0	n/a	106679	KeyDown	41324	2	Ring	9
178.0266666666667	0	n/a	106817	KeyDown	41324	4	Index	9
178.4766666666667	0	n/a	107087	KeyDown	41324	4	Index	9
178.9216666666667	0	n/a	107354	KeyDown	41324	4	Index	9
179.9416666666667	0	n/a	107966	KeyDown	41324	1	Little	9
180.3733333333333	0	n/a	108225	KeyDown	41324	3	Middle	9
180.5433333333334	0	n/a	108327	KeyDown	41324	2	Ring	9
180.7116666666667	0	n/a	108428	KeyDown	41324	4	Index	9
181.1116666666667	0	n/a	108668	KeyDown	41324	4	Index	9
181.4816666666667	0	n/a	108890	KeyDown	41324	1	Little	9
181.8133333333333	0	n/a	109089	KeyDown	41324	3	Middle	9
181.9850000000000	0	n/a	109192	KeyDown	41324	2	Ring	9
182.1883333333333	0	n/a	109314	KeyDown	41324	4	Index	9
182.6266666666667	0	n/a	109577	KeyDown	41324	4	Index	9
183.0083333333334	0	n/a	109806	KeyDown	41324	1	Little	9
183.3283333333333	0	n/a	109998	KeyDown	41324	3	Middle	9
183.4783333333334	0	n/a	110088	KeyDown	41324	2	Ring	9
183.6616666666667	0	n/a	110198	KeyDown	41324	4	Index	9
184.0833333333333	0	n/a	110451	KeyDown	41324	4	Index	9
184.2333333333333	0	n/a	110541	StopPractice	41324	n/a	n/a	9
184.2350000000000	0	n/a	110542	StartRest	XXXXX	n/a	n/a	9
194.2683333333333	0	n/a	116562	StopRest	XXXXX	n/a	n/a	9
194.2700000000000	0	UPPT001	116563	StartPractice	41324	n/a	n/a	10
194.9583333333333	0	n/a	116976	KeyDown	41324	4	Index	10
195.3316666666667	0	n/a	117200	KeyDown	41324	1	Little	10
195.6650000000000	0	n/a	117400	KeyDown	41324	3	Middle	10
195.8283333333333	0	n/a	117498	KeyDown	41324	2	Ring	10
196.0366666666667	0	n/a	117623	KeyDown	41324	4	Index	10
196.4533333333333	0	n/a	117873	KeyDown	41324	4	Index	10
196.7966666666667	0	n/a	118079	KeyDown	41324	1	Little	10
197.1500000000000	0	n/a	118291	KeyDown	41324	3	Middle	10
197.2750000000000	0	n/a	118366	KeyDown	41324	2	Ring	10
197.4850000000000	0	n/a	118492	KeyDown	41324	4	Index	10
198.0666666666667	0	n/a	118841	KeyDown	41324	4	Index	10
198.4566666666667	0	n/a	119075	KeyDown	41324	1	Little	10
198.8866666666667	0	n/a	119333	KeyDown	41324	3	Middle	10
199.1050000000000	0	n/a	119464	KeyDown	41324	2	Ring	10
199.3016666666667	0	n/a	119582	KeyDown	41324	4	Index	10
199.9316666666667	0	n/a	119960	KeyDown	41324	4	Index	10
200.4183333333334	0	n/a	120252	KeyDown	41324	1	Little	10
201.1033333333334	0	n/a	120663	KeyDown	41324	3	Middle	10
201.3366666666667	0	n/a	120803	KeyDown	41324	2	Ring	10
201.5333333333334	0	n/a	120921	KeyDown	41324	4	Index	10
201.9633333333333	0	n/a	121179	KeyDown	41324	4	Index	10
202.3466666666667	0	n/a	121409	KeyDown	41324	1	Little	10
202.6616666666667	0	n/a	121598	KeyDown	41324	3	Middle	10
202.8600000000000	0	n/a	121717	KeyDown	41324	2	Ring	10
203.0983333333334	0	n/a	121860	KeyDown	41324	4	Index	10
203.9300000000000	0	n/a	122359	KeyDown	41324	4	Index	10
204.3083333333333	0	n/a	122586	StopPractice	41324	n/a	n/a	10
204.3100000000000	0	n/a	122587	StartRest	XXXXX	n/a	n/a	10
214.3433333333333	0	n/a	128607	StopRest	XXXXX	n/a	n/a	10
214.3450000000000	0	UPPT001	128608	StartPractice	41324	n/a	n/a	11
214.9366666666667	0	n/a	128963	KeyDown	41324	4	Index	11
215.3333333333333	0	n/a	129201	KeyDown	41324	1	Little	11
215.6216666666667	0	n/a	129374	KeyDown	41324	3	Middle	11
215.8266666666667	0	n/a	129497	KeyDown	41324	2	Ring	11
216.0116666666667	0	n/a	129608	KeyDown	41324	4	Index	11
216.3833333333334	0	n/a	129831	KeyDown	41324	4	Index	11
216.8333333333333	0	n/a	130101	KeyDown	41324	1	Little	11
217.4183333333334	0	n/a	130452	KeyDown	41324	3	Middle	11
217.5800000000000	0	n/a	130549	KeyDown	41324	2	Ring	11
217.7566666666667	0	n/a	130655	KeyDown	41324	4	Index	11
218.2283333333334	0	n/a	130938	KeyDown	41324	4	Index	11
218.7283333333334	0	n/a	131238	KeyDown	41324	1	Little	11
219.3633333333333	0	n/a	131619	KeyDown	41324	3	Middle	11
219.5733333333334	0	n/a	131745	KeyDown	41324	2	Ring	11
219.7283333333334	0	n/a	131838	KeyDown	41324	4	Index	11
220.1633333333334	0	n/a	132099	KeyDown	41324	4	Index	11
220.4733333333334	0	n/a	132285	KeyDown	41324	1	Little	11
220.8516666666667	0	n/a	132512	KeyDown	41324	3	Middle	11
221.0433333333334	0	n/a	132627	KeyDown	41324	2	Ring	11
221.1866666666667	0	n/a	132713	KeyDown	41324	4	Index	11
221.6233333333333	0	n/a	132975	KeyDown	41324	4	Index	11
222.0983333333334	0	n/a	133260	KeyDown	41324	1	Little	11
222.4850000000000	0	n/a	133492	KeyDown	41324	3	Middle	11
222.6316666666667	0	n/a	133580	KeyDown	41324	2	Ring	11
222.8183333333334	0	n/a	133692	KeyDown	41324	4	Index	11
223.2516666666667	0	n/a	133952	KeyDown	41324	4	Index	11
223.6550000000000	0	n/a	134194	KeyDown	41324	1	Little	11
224.1933333333334	0	n/a	134517	KeyDown	41324	3	Middle	11
224.3833333333334	0	n/a	134631	StopPractice	41324	n/a	n/a	11
224.3850000000000	0	n/a	134632	StartRest	XXXXX	n/a	n/a	11
234.4183333333334	0	n/a	140652	StopRest	XXXXX	n/a	n/a	11
234.4200000000000	0	UPPT001	140653	StartPractice	41324	n/a	n/a	12
234.9150000000000	0	n/a	140950	KeyDown	41324	4	Index	12
235.3033333333333	0	n/a	141183	KeyDown	41324	1	Little	12
235.6166666666667	0	n/a	141371	KeyDown	41324	3	Middle	12
235.7733333333333	0	n/a	141465	KeyDown	41324	2	Ring	12
235.9450000000000	0	n/a	141568	KeyDown	41324	4	Index	12
236.3350000000000	0	n/a	141802	KeyDown	41324	4	Index	12
236.6483333333333	0	n/a	141990	KeyDown	41324	1	Little	12
236.9666666666667	0	n/a	142181	KeyDown	41324	3	Middle	12
237.1133333333333	0	n/a	142269	KeyDown	41324	2	Ring	12
237.2566666666667	0	n/a	142355	KeyDown	41324	4	Index	12
237.6233333333333	0	n/a	142575	KeyDown	41324	4	Index	12
238.3616666666667	0	n/a	143018	KeyDown	41324	1	Little	12
238.7833333333334	0	n/a	143271	KeyDown	41324	3	Middle	12
238.9283333333333	0	n/a	143358	KeyDown	41324	2	Ring	12
239.1166666666667	0	n/a	143471	KeyDown	41324	4	Index	12
239.4916666666667	0	n/a	143696	KeyDown	41324	4	Index	12
239.8066666666667	0	n/a	143885	KeyDown	41324	1	Little	12
240.1066666666667	0	n/a	144065	KeyDown	41324	3	Middle	12
240.2366666666667	0	n/a	144143	KeyDown	41324	2	Ring	12
240.3916666666667	0	n/a	144236	KeyDown	41324	4	Index	12
240.7816666666667	0	n/a	144470	KeyDown	41324	4	Index	12
241.2616666666667	0	n/a	144758	KeyDown	41324	1	Little	12
241.7583333333334	0	n/a	145056	KeyDown	41324	3	Middle	12
241.9383333333334	0	n/a	145164	KeyDown	41324	2	Ring	12
242.1366666666667	0	n/a	145283	KeyDown	41324	4	Index	12
242.7033333333333	0	n/a	145623	KeyDown	41324	4	Index	12
243.0133333333333	0	n/a	145809	KeyDown	41324	1	Little	12
243.3533333333334	0	n/a	146013	KeyDown	41324	3	Middle	12
243.4816666666667	0	n/a	146090	KeyDown	41324	2	Ring	12
243.6716666666667	0	n/a	146204	KeyDown	41324	4	Index	12
244.0550000000000	0	n/a	146434	KeyDown	41324	4	Index	12
244.4400000000000	0	n/a	146665	KeyDown	41324	1	Little	12
244.4583333333333	0	n/a	146676	StopPractice	41324	n/a	n/a	12
244.4600000000000	0	n/a	146677	StartRest	XXXXX	n/a	n/a	12
254.4933333333333	0	n/a	152697	StopRest	XXXXX	n/a	n/a	12
254.4950000000000	0	UPPT001	152698	StartPractice	41324	n/a	n/a	13
254.9733333333334	0	n/a	152985	KeyDown	41324	4	Index	13
255.2516666666667	0	n/a	153152	KeyDown	41324	1	Little	13
255.5416666666667	0	n/a	153326	KeyDown	41324	3	Middle	13
255.6733333333333	0	n/a	153405	KeyDown	41324	2	Ring	13
255.8266666666667	0	n/a	153497	KeyDown	41324	4	Index	13
256.1850000000000	0	n/a	153712	KeyDown	41324	4	Index	13
256.4366666666667	0	n/a	153863	KeyDown	41324	1	Little	13
256.6816666666667	0	n/a	154010	KeyDown	41324	3	Middle	13
256.7983333333333	0	n/a	154080	KeyDown	41324	2	Ring	13
256.9750000000000	0	n/a	154186	KeyDown	41324	4	Index	13
257.3650000000000	0	n/a	154420	KeyDown	41324	4	Index	13
257.6766666666667	0	n/a	154607	KeyDown	41324	1	Little	13
258.0766666666667	0	n/a	154847	KeyDown	41324	3	Middle	13
258.1916666666667	0	n/a	154916	KeyDown	41324	2	Ring	13
258.3433333333334	0	n/a	155007	KeyDown	41324	4	Index	13
258.6833333333333	0	n/a	155211	KeyDown	41324	4	Index	13
259.0733333333333	0	n/a	155445	KeyDown	41324	1	Little	13
259.5550000000000	0	n/a	155734	KeyDown	41324	3	Middle	13
259.6783333333333	0	n/a	155808	KeyDown	41324	2	Ring	13
259.8233333333333	0	n/a	155895	KeyDown	41324	4	Index	13
260.1766666666667	0	n/a	156107	KeyDown	41324	4	Index	13
260.4733333333334	0	n/a	156285	KeyDown	41324	1	Little	13
260.7966666666667	0	n/a	156479	KeyDown	41324	3	Middle	13
260.9233333333333	0	n/a	156555	KeyDown	41324	2	Ring	13
261.0533333333333	0	n/a	156633	KeyDown	41324	4	Index	13
261.4333333333333	0	n/a	156861	KeyDown	41324	4	Index	13
261.6966666666667	0	n/a	157019	KeyDown	41324	1	Little	13
262.4183333333334	0	n/a	157452	KeyDown	41324	3	Middle	13
262.5133333333334	0	n/a	157509	KeyDown	41324	2	Ring	13
262.6883333333333	0	n/a	157614	KeyDown	41324	4	Index	13
263.3133333333333	0	n/a	157989	KeyDown	41324	4	Index	13
263.6266666666667	0	n/a	158177	KeyDown	41324	1	Little	13
264.0550000000000	0	n/a	158434	KeyDown	41324	3	Middle	13
264.1550000000000	0	n/a	158494	KeyDown	41324	2	Ring	13
264.3100000000000	0	n/a	158587	KeyDown	41324	4	Index	13
264.5333333333334	0	n/a	158721	StopPractice	41324	n/a	n/a	13
264.5350000000000	0	n/a	158722	StartRest	XXXXX	n/a	n/a	13
274.5683333333333	0	n/a	164742	StopRest	XXXXX	n/a	n/a	13
274.5700000000000	0	UPPT001	164743	StartPractice	41324	n/a	n/a	14
275.1166666666667	0	n/a	165071	KeyDown	41324	4	Index	14
275.4166666666667	0	n/a	165251	KeyDown	41324	1	Little	14
275.7416666666667	0	n/a	165446	KeyDown	41324	3	Middle	14
275.8550000000000	0	n/a	165514	KeyDown	41324	2	Ring	14
276.0016666666667	0	n/a	165602	KeyDown	41324	4	Index	14
276.4583333333334	0	n/a	165876	KeyDown	41324	4	Index	14
276.7416666666667	0	n/a	166046	KeyDown	41324	1	Little	14
277.1316666666667	0	n/a	166280	KeyDown	41324	3	Middle	14
277.2450000000000	0	n/a	166348	KeyDown	41324	2	Ring	14
277.3933333333334	0	n/a	166437	KeyDown	41324	4	Index	14
277.7833333333334	0	n/a	166671	KeyDown	41324	4	Index	14
278.1800000000000	0	n/a	166909	KeyDown	41324	1	Little	14
278.7216666666667	0	n/a	167234	KeyDown	41324	3	Middle	14
278.8516666666667	0	n/a	167312	KeyDown	41324	2	Ring	14
278.9783333333334	0	n/a	167388	KeyDown	41324	4	Index	14
279.5166666666667	0	n/a	167711	KeyDown	41324	4	Index	14
280.0566666666667	0	n/a	168035	KeyDown	41324	1	Little	14
280.5350000000000	0	n/a	168322	KeyDown	41324	3	Middle	14
280.6583333333334	0	n/a	168396	KeyDown	41324	2	Ring	14
280.7983333333333	0	n/a	168480	KeyDown	41324	4	Index	14
281.2300000000000	0	n/a	168739	KeyDown	41324	4	Index	14
281.5883333333334	0	n/a	168954	KeyDown	41324	1	Little	14
281.9183333333334	0	n/a	169152	KeyDown	41324	3	Middle	14
282.0433333333334	0	n/a	169227	KeyDown	41324	2	Ring	14
282.1983333333333	0	n/a	169320	KeyDown	41324	4	Index	14
282.9366666666667	0	n/a	169763	KeyDown	41324	4	Index	14
283.2366666666667	0	n/a	169943	KeyDown	41324	1	Little	14
283.6616666666667	0	n/a	170198	KeyDown	41324	3	Middle	14
283.7783333333334	0	n/a	170268	KeyDown	41324	2	Ring	14
283.9216666666667	0	n/a	170354	KeyDown	41324	4	Index	14
284.4600000000000	0	n/a	170677	KeyDown	41324	4	Index	14
284.6083333333333	0	n/a	170766	StopPractice	41324	n/a	n/a	14
284.6100000000000	0	n/a	170767	StartRest	XXXXX	n/a	n/a	14
294.6416666666667	0	n/a	176786	StopRest	XXXXX	n/a	n/a	14
294.6433333333334	0	UPPT001	176787	StartPractice	41324	n/a	n/a	15
295.2450000000000	0	n/a	177148	KeyDown	41324	4	Index	15
295.5266666666667	0	n/a	177317	KeyDown	41324	1	Little	15
295.7766666666667	0	n/a	177467	KeyDown	41324	3	Middle	15
295.9100000000000	0	n/a	177547	KeyDown	41324	2	Ring	15
296.0500000000000	0	n/a	177631	KeyDown	41324	4	Index	15
296.4150000000000	0	n/a	177850	KeyDown	41324	4	Index	15
296.6583333333334	0	n/a	177996	KeyDown	41324	1	Little	15
296.9400000000000	0	n/a	178165	KeyDown	41324	3	Middle	15
297.0700000000000	0	n/a	178243	KeyDown	41324	2	Ring	15
297.1866666666667	0	n/a	178313	KeyDown	41324	4	Index	15
297.6350000000000	0	n/a	178582	KeyDown	41324	4	Index	15
298.0333333333334	0	n/a	178821	KeyDown	41324	1	Little	15
298.4116666666667	0	n/a	179048	KeyDown	41324	3	Middle	15
298.5483333333333	0	n/a	179130	KeyDown	41324	2	Ring	15
298.6700000000000	0	n/a	179203	KeyDown	41324	4	Index	15
299.1050000000000	0	n/a	179464	KeyDown	41324	4	Index	15
299.4000000000000	0	n/a	179641	KeyDown	41324	1	Little	15
299.7800000000000	0	n/a	179869	KeyDown	41324	3	Middle	15
299.8866666666667	0	n/a	179933	KeyDown	41324	2	Ring	15
300.0183333333334	0	n/a	180012	KeyDown	41324	4	Index	15
300.5150000000000	0	n/a	180310	KeyDown	41324	4	Index	15
300.7966666666667	0	n/a	180479	KeyDown	41324	1	Little	15
301.1450000000000	0	n/a	180688	KeyDown	41324	3	Middle	15
301.3416666666667	0	n/a	180806	KeyDown	41324	2	Ring	15
301.4266666666667	0	n/a	180857	KeyDown	41324	4	Index	15
301.8783333333333	0	n/a	181128	KeyDown	41324	4	Index	15
302.3033333333333	0	n/a	181383	KeyDown	41324	1	Little	15
302.8333333333334	0	n/a	181701	KeyDown	41324	3	Middle	15
303.2350000000000	0	n/a	181942	KeyDown	41324	2	Ring	15
303.6316666666667	0	n/a	182180	KeyDown	41324	4	Index	15
304.2250000000000	0	n/a	182536	KeyDown	41324	4	Index	15
304.6150000000000	0	n/a	182770	KeyDown	41324	1	Little	15
304.6816666666667	0	n/a	182810	StopPractice	41324	n/a	n/a	15
304.6833333333333	0	n/a	182811	StartRest	XXXXX	n/a	n/a	15
314.7183333333334	0	n/a	188832	StopRest	XXXXX	n/a	n/a	15
314.7200000000000	0	UPPT001	188833	StartPractice	41324	n/a	n/a	16
315.1883333333333	0	n/a	189114	KeyDown	41324	4	Index	16
315.4283333333333	0	n/a	189258	KeyDown	41324	1	Little	16
315.7716666666667	0	n/a	189464	KeyDown	41324	3	Middle	16
315.8983333333334	0	n/a	189540	KeyDown	41324	2	Ring	16
316.0166666666667	0	n/a	189611	KeyDown	41324	4	Index	16
316.5983333333334	0	n/a	189960	KeyDown	41324	4	Index	16
316.8483333333334	0	n/a	190110	KeyDown	41324	1	Little	16
317.2466666666667	0	n/a	190349	KeyDown	41324	3	Middle	16
317.3533333333334	0	n/a	190413	KeyDown	41324	2	Ring	16
317.5216666666667	0	n/a	190514	KeyDown	41324	4	Index	16
318.3400000000000	0	n/a	191005	KeyDown	41324	4	Index	16
318.6050000000000	0	n/a	191164	KeyDown	41324	1	Little	16
319.5350000000000	0	n/a	191722	KeyDown	41324	3	Middle	16
319.6533333333334	0	n/a	191793	KeyDown	41324	2	Ring	16
319.8066666666667	0	n/a	191885	KeyDown	41324	4	Index	16
320.4583333333334	0	n/a	192276	KeyDown	41324	4	Index	16
320.7683333333334	0	n/a	192462	KeyDown	41324	1	Little	16
321.1500000000000	0	n/a	192691	KeyDown	41324	3	Middle	16
321.2666666666667	0	n/a	192761	KeyDown	41324	2	Ring	16
321.3983333333334	0	n/a	192840	KeyDown	41324	4	Index	16
321.7716666666667	0	n/a	193064	KeyDown	41324	4	Index	16
322.2716666666667	0	n/a	193364	KeyDown	41324	1	Little	16
322.6366666666667	0	n/a	193583	KeyDown	41324	3	Middle	16
322.7966666666667	0	n/a	193679	KeyDown	41324	2	Ring	16
323.0300000000000	0	n/a	193819	KeyDown	41324	4	Index	16
323.7166666666667	0	n/a	194231	KeyDown	41324	4	Index	16
324.0933333333334	0	n/a	194457	KeyDown	41324	1	Little	16
324.4766666666667	0	n/a	194687	KeyDown	41324	3	Middle	16
324.5816666666667	0	n/a	194750	KeyDown	41324	2	Ring	16
324.7583333333334	0	n/a	194856	StopPractice	41324	n/a	n/a	16
324.7600000000000	0	n/a	194857	StartRest	XXXXX	n/a	n/a	16
334.7916666666667	0	n/a	200876	StopRest	XXXXX	n/a	n/a	16
334.7933333333334	0	UPPT001	200877	StartPractice	41324	n/a	n/a	17
335.4266666666667	0	n/a	201257	KeyDown	41324	4	Index	17
335.7316666666667	0	n/a	201440	KeyDown	41324	1	Little	17
336.0416666666667	0	n/a	201626	KeyDown	41324	3	Middle	17
336.1450000000000	0	n/a	201688	KeyDown	41324	2	Ring	17
336.2700000000000	0	n/a	201763	KeyDown	41324	4	Index	17
336.7666666666667	0	n/a	202061	KeyDown	41324	4	Index	17
336.9933333333333	0	n/a	202197	KeyDown	41324	1	Little	17
337.2800000000000	0	n/a	202369	KeyDown	41324	3	Middle	17
337.3900000000000	0	n/a	202435	KeyDown	41324	2	Ring	17
337.5316666666667	0	n/a	202520	KeyDown	41324	4	Index	17
338.1416666666667	0	n/a	202886	KeyDown	41324	4	Index	17
338.4816666666667	0	n/a	203090	KeyDown	41324	1	Little	17
338.8900000000000	0	n/a	203335	KeyDown	41324	3	Middle	17
339.0066666666667	0	n/a	203405	KeyDown	41324	2	Ring	17
339.1416666666667	0	n/a	203486	KeyDown	41324	4	Index	17
339.7700000000000	0	n/a	203863	KeyDown	41324	4	Index	17
340.1266666666667	0	n/a	204077	KeyDown	41324	1	Little	17
340.6533333333334	0	n/a	204393	KeyDown	41324	3	Middle	17
340.7466666666667	0	n/a	204449	KeyDown	41324	2	Ring	17
340.8916666666667	0	n/a	204536	KeyDown	41324	4	Index	17
341.3750000000000	0	n/a	204826	KeyDown	41324	4	Index	17
341.7483333333333	0	n/a	205050	KeyDown	41324	1	Little	17
342.2283333333334	0	n/a	205338	KeyDown	41324	3	Middle	17
342.3416666666667	0	n/a	205406	KeyDown	41324	2	Ring	17
342.4950000000000	0	n/a	205498	KeyDown	41324	4	Index	17
343.0516666666667	0	n/a	205832	KeyDown	41324	4	Index	17
343.5016666666667	0	n/a	206102	KeyDown	41324	1	Little	17
344.0066666666667	0	n/a	206405	KeyDown	41324	3	Middle	17
344.1000000000000	0	n/a	206461	KeyDown	41324	2	Ring	17
344.2516666666667	0	n/a	206552	KeyDown	41324	4	Index	17
344.7450000000000	0	n/a	206848	KeyDown	41324	4	Index	17
344.8316666666667	0	n/a	206900	StopPractice	41324	n/a	n/a	17
344.8333333333334	0	n/a	206901	StartRest	XXXXX	n/a	n/a	17
354.8666666666667	0	n/a	212921	StopRest	XXXXX	n/a	n/a	17
354.8683333333333	0	UPPT001	212922	StartPractice	41324	n/a	n/a	18
355.3933333333334	0	n/a	213237	KeyDown	41324	4	Index	18
355.6950000000001	0	n/a	213418	KeyDown	41324	1	Little	18
355.9633333333334	0	n/a	213579	KeyDown	41324	3	Middle	18
356.0616666666667	0	n/a	213638	KeyDown	41324	2	Ring	18
356.1900000000000	0	n/a	213715	KeyDown	41324	4	Index	18
356.6516666666667	0	n/a	213992	KeyDown	41324	4	Index	18
357.2533333333333	0	n/a	214353	KeyDown	41324	1	Little	18
357.6900000000000	0	n/a	214615	KeyDown	41324	3	Middle	18
357.8083333333333	0	n/a	214686	KeyDown	41324	2	Ring	18
357.9350000000000	0	n/a	214762	KeyDown	41324	4	Index	18
358.4466666666667	0	n/a	215069	KeyDown	41324	4	Index	18
358.7816666666667	0	n/a	215270	KeyDown	41324	1	Little	18
359.1666666666667	0	n/a	215501	KeyDown	41324	3	Middle	18
359.2800000000000	0	n/a	215569	KeyDown	41324	2	Ring	18
359.4016666666667	0	n/a	215642	KeyDown	41324	4	Index	18
359.9200000000000	0	n/a	215953	KeyDown	41324	4	Index	18
360.2666666666667	0	n/a	216161	KeyDown	41324	1	Little	18
360.6950000000001	0	n/a	216418	KeyDown	41324	3	Middle	18
360.8150000000000	0	n/a	216490	KeyDown	41324	2	Ring	18
360.9716666666667	0	n/a	216584	KeyDown	41324	4	Index	18
361.7700000000000	0	n/a	217063	KeyDown	41324	4	Index	18
362.0966666666667	0	n/a	217259	KeyDown	41324	1	Little	18
362.4350000000000	0	n/a	217462	KeyDown	41324	3	Middle	18
362.6300000000000	0	n/a	217579	KeyDown	41324	2	Ring	18
363.0066666666667	0	n/a	217805	KeyDown	41324	4	Index	18
363.7366666666667	0	n/a	218243	KeyDown	41324	4	Index	18
364.2583333333334	0	n/a	218556	KeyDown	41324	1	Little	18
364.6900000000000	0	n/a	218815	KeyDown	41324	3	Middle	18
364.8600000000000	0	n/a	218917	KeyDown	41324	2	Ring	18
364.9066666666667	0	n/a	218945	StopPractice	41324	n/a	n/a	18
364.9083333333334	0	n/a	218946	StartRest	XXXXX	n/a	n/a	18
374.9416666666667	0	n/a	224966	StopRest	XXXXX	n/a	n/a	18
374.9433333333334	0	UPPT001	224967	StartPractice	41324	n/a	n/a	19
375.3850000000000	0	n/a	225232	KeyDown	41324	4	Index	19
375.5700000000001	0	n/a	225343	KeyDown	41324	1	Little	19
376.1166666666667	0	n/a	225671	KeyDown	41324	3	Middle	19
376.2350000000000	0	n/a	225742	KeyDown	41324	2	Ring	19
376.3850000000000	0	n/a	225832	KeyDown	41324	4	Index	19
377.1683333333334	0	n/a	226302	KeyDown	41324	4	Index	19
377.4716666666667	0	n/a	226484	KeyDown	41324	1	Little	19
378.0466666666667	0	n/a	226829	KeyDown	41324	3	Middle	19
378.1650000000000	0	n/a	226900	KeyDown	41324	2	Ring	19
378.2866666666667	0	n/a	226973	KeyDown	41324	4	Index	19
378.7083333333334	0	n/a	227226	KeyDown	41324	4	Index	19
378.9500000000000	0	n/a	227371	KeyDown	41324	1	Little	19
379.2416666666667	0	n/a	227546	KeyDown	41324	3	Middle	19
379.3566666666667	0	n/a	227615	KeyDown	41324	2	Ring	19
379.4983333333333	0	n/a	227700	KeyDown	41324	4	Index	19
380.0516666666667	0	n/a	228032	KeyDown	41324	4	Index	19
380.3283333333334	0	n/a	228198	KeyDown	41324	1	Little	19
380.6616666666667	0	n/a	228398	KeyDown	41324	3	Middle	19
380.7650000000000	0	n/a	228460	KeyDown	41324	2	Ring	19
380.9000000000000	0	n/a	228541	KeyDown	41324	4	Index	19
381.4316666666667	0	n/a	228860	KeyDown	41324	4	Index	19
381.7400000000000	0	n/a	229045	KeyDown	41324	1	Little	19
382.2866666666667	0	n/a	229373	KeyDown	41324	3	Middle	19
382.3800000000001	0	n/a	229429	KeyDown	41324	2	Ring	19
382.5400000000000	0	n/a	229525	KeyDown	41324	4	Index	19
383.1850000000000	0	n/a	229912	KeyDown	41324	4	Index	19
383.4650000000000	0	n/a	230080	KeyDown	41324	1	Little	19
383.8600000000000	0	n/a	230317	KeyDown	41324	3	Middle	19
383.9783333333334	0	n/a	230388	KeyDown	41324	2	Ring	19
384.1500000000000	0	n/a	230491	KeyDown	41324	4	Index	19
384.7050000000000	0	n/a	230824	KeyDown	41324	4	Index	19
384.9816666666667	0	n/a	230990	StopPractice	41324	n/a	n/a	19
384.9833333333333	0	n/a	230991	StartRest	XXXXX	n/a	n/a	19
395.0166666666667	0	n/a	237011	StopRest	XXXXX	n/a	n/a	19
395.0183333333334	0	UPPT001	237012	StartPractice	41324	n/a	n/a	20
395.6350000000000	0	n/a	237382	KeyDown	41324	4	Index	20
396.0733333333334	0	n/a	237645	KeyDown	41324	1	Little	20
396.6116666666667	0	n/a	237968	KeyDown	41324	3	Middle	20
396.7066666666667	0	n/a	238025	KeyDown	41324	2	Ring	20
396.8333333333334	0	n/a	238101	KeyDown	41324	4	Index	20
397.2983333333333	0	n/a	238380	KeyDown	41324	4	Index	20
397.5883333333334	0	n/a	238554	KeyDown	41324	1	Little	20
397.9466666666667	0	n/a	238769	KeyDown	41324	3	Middle	20
398.1233333333333	0	n/a	238875	KeyDown	41324	2	Ring	20
398.2300000000000	0	n/a	238939	KeyDown	41324	4	Index	20
398.6950000000001	0	n/a	239218	KeyDown	41324	4	Index	20
398.9500000000000	0	n/a	239371	KeyDown	41324	1	Little	20
399.3333333333334	0	n/a	239601	KeyDown	41324	3	Middle	20
399.4250000000000	0	n/a	239656	KeyDown	41324	2	Ring	20
399.5533333333333	0	n/a	239733	KeyDown	41324	4	Index	20
400.0200000000000	0	n/a	240013	KeyDown	41324	4	Index	20
400.3616666666667	0	n/a	240218	KeyDown	41324	1	Little	20
400.7466666666667	0	n/a	240449	KeyDown	41324	2	Ring	20
401.8116666666667	0	n/a	241088	KeyDown	41324	3	Middle	20
402.1900000000000	0	n/a	241315	KeyDown	41324	4	Index	20
402.6800000000000	0	n/a	241609	KeyDown	41324	4	Index	20
402.9416666666667	0	n/a	241766	KeyDown	41324	3	Middle	20
404.0666666666667	0	n/a	242441	KeyDown	41324	4	Index	20
404.4266666666667	0	n/a	242657	KeyDown	41324	1	Little	20
404.8700000000000	0	n/a	242923	KeyDown	41324	3	Middle	20
404.9516666666667	0	n/a	242972	KeyDown	41324	2	Ring	20
405.0566666666667	0	n/a	243035	StopPractice	41324	n/a	n/a	20
405.0583333333333	0	n/a	243036	StartRest	XXXXX	n/a	n/a	20
415.0916666666667	0	n/a	249056	StopRest	XXXXX	n/a	n/a	20
415.0933333333334	0	UPPT001	249057	StartPractice	41324	n/a	n/a	21
415.7850000000000	0	n/a	249472	KeyDown	41324	4	Index	21
416.0766666666667	0	n/a	249647	KeyDown	41324	1	Little	21
416.8100000000000	0	n/a	250087	KeyDown	41324	3	Middle	21
417.0816666666667	0	n/a	250250	KeyDown	41324	2	Ring	21
417.5216666666667	0	n/a	250514	KeyDown	41324	4	Index	21
417.9733333333334	0	n/a	250785	KeyDown	41324	4	Index	21
418.3000000000000	0	n/a	250981	KeyDown	41324	1	Little	21
418.6916666666667	0	n/a	251216	KeyDown	41324	3	Middle	21
418.8550000000000	0	n/a	251314	KeyDown	41324	2	Ring	21
418.9850000000000	0	n/a	251392	KeyDown	41324	4	Index	21
419.4400000000001	0	n/a	251665	KeyDown	41324	4	Index	21
419.8916666666667	0	n/a	251936	KeyDown	41324	1	Little	21
420.4016666666667	0	n/a	252242	KeyDown	41324	3	Middle	21
420.5800000000000	0	n/a	252349	KeyDown	41324	2	Ring	21
421.0416666666667	0	n/a	252626	KeyDown	41324	4	Index	21
422.1650000000000	0	n/a	253300	KeyDown	41324	4	Index	21
422.5050000000001	0	n/a	253504	KeyDown	41324	1	Little	21
422.9250000000000	0	n/a	253756	KeyDown	41324	3	Middle	21
423.0533333333333	0	n/a	253833	KeyDown	41324	2	Ring	21
423.2416666666667	0	n/a	253946	KeyDown	41324	4	Index	21
423.8650000000000	0	n/a	254320	KeyDown	41324	4	Index	21
424.2800000000000	0	n/a	254569	KeyDown	41324	1	Little	21
425.1316666666667	0	n/a	255080	StopPractice	41324	n/a	n/a	21
425.1333333333334	0	n/a	255081	StartRest	XXXXX	n/a	n/a	21
435.1666666666667	0	n/a	261101	StopRest	XXXXX	n/a	n/a	21
435.1683333333334	0	UPPT001	261102	StartPractice	41324	n/a	n/a	22
435.7866666666667	0	n/a	261473	KeyDown	41324	4	Index	22
436.0916666666667	0	n/a	261656	KeyDown	41324	1	Little	22
436.7483333333333	0	n/a	262050	KeyDown	41324	3	Middle	22
436.8550000000000	0	n/a	262114	KeyDown	41324	2	Ring	22
437.3333333333334	0	n/a	262401	KeyDown	41324	4	Index	22
437.8433333333334	0	n/a	262707	KeyDown	41324	4	Index	22
438.1250000000000	0	n/a	262876	KeyDown	41324	1	Little	22
438.5316666666667	0	n/a	263120	KeyDown	41324	3	Middle	22
438.6683333333334	0	n/a	263202	KeyDown	41324	2	Ring	22
439.2150000000000	0	n/a	263530	KeyDown	41324	4	Index	22
439.8900000000000	0	n/a	263935	KeyDown	41324	1	Little	22
440.4633333333334	0	n/a	264279	KeyDown	41324	4	Index	22
441.7283333333334	0	n/a	265038	KeyDown	41324	3	Middle	22
441.7933333333334	0	n/a	265077	KeyDown	41324	2	Ring	22
442.0700000000001	0	n/a	265243	KeyDown	41324	4	Index	22
442.7166666666667	0	n/a	265631	KeyDown	41324	4	Index	22
442.9766666666667	0	n/a	265787	KeyDown	41324	1	Little	22
444.6783333333333	0	n/a	266808	KeyDown	41324	3	Middle	22
444.9416666666667	0	n/a	266966	KeyDown	41324	2	Ring	22
445.2066666666667	0	n/a	267125	StopPractice	41324	n/a	n/a	22
445.2083333333334	0	n/a	267126	StartRest	XXXXX	n/a	n/a	22
455.2416666666667	0	n/a	273146	StopRest	XXXXX	n/a	n/a	22
455.2433333333333	0	UPPT001	273147	StartPractice	41324	n/a	n/a	23
455.8783333333334	0	n/a	273528	KeyDown	41324	4	Index	23
456.1716666666667	0	n/a	273704	KeyDown	41324	1	Little	23
456.8650000000000	0	n/a	274120	KeyDown	41324	3	Middle	23
457.0566666666667	0	n/a	274235	KeyDown	41324	2	Ring	23
457.5366666666667	0	n/a	274523	KeyDown	41324	4	Index	23
457.9766666666667	0	n/a	274787	KeyDown	41324	4	Index	23
458.2566666666667	0	n/a	274955	KeyDown	41324	1	Little	23
458.7566666666667	0	n/a	275255	KeyDown	41324	3	Middle	23
458.8616666666667	0	n/a	275318	KeyDown	41324	2	Ring	23
459.2966666666667	0	n/a	275579	KeyDown	41324	4	Index	23
459.7800000000000	0	n/a	275869	KeyDown	41324	1	Little	23
460.5333333333334	0	n/a	276321	KeyDown	41324	4	Index	23
461.3850000000000	0	n/a	276832	KeyDown	41324	1	Little	23
461.8833333333334	0	n/a	277131	KeyDown	41324	3	Middle	23
462.0050000000001	0	n/a	277204	KeyDown	41324	2	Ring	23
462.2333333333333	0	n/a	277341	KeyDown	41324	4	Index	23
462.8550000000000	0	n/a	277714	KeyDown	41324	4	Index	23
463.3766666666667	0	n/a	278027	KeyDown	41324	1	Little	23
463.9200000000000	0	n/a	278353	KeyDown	41324	3	Middle	23
464.0500000000000	0	n/a	278431	KeyDown	41324	2	Ring	23
464.5000000000001	0	n/a	278701	KeyDown	41324	4	Index	23
465.0250000000000	0	n/a	279016	KeyDown	41324	4	Index	23
465.2816666666667	0	n/a	279170	StopPractice	41324	n/a	n/a	23
465.2833333333334	0	n/a	279171	StartRest	XXXXX	n/a	n/a	23
475.3166666666667	0	n/a	285191	StopRest	XXXXX	n/a	n/a	23
475.3183333333334	0	UPPT001	285192	StartPractice	41324	n/a	n/a	24
475.8050000000000	0	n/a	285484	KeyDown	41324	4	Index	24
476.0666666666667	0	n/a	285641	KeyDown	41324	1	Little	24
476.6816666666667	0	n/a	286010	KeyDown	41324	3	Middle	24
476.7783333333334	0	n/a	286068	KeyDown	41324	2	Ring	24
477.0516666666667	0	n/a	286232	KeyDown	41324	4	Index	24
477.5200000000000	0	n/a	286513	KeyDown	41324	4	Index	24
477.8066666666667	0	n/a	286685	KeyDown	41324	1	Little	24
478.1966666666667	0	n/a	286919	KeyDown	41324	3	Middle	24
478.3450000000000	0	n/a	287008	KeyDown	41324	2	Ring	24
478.7466666666667	0	n/a	287249	KeyDown	41324	4	Index	24
479.5300000000000	0	n/a	287719	KeyDown	41324	4	Index	24
479.9016666666667	0	n/a	287942	KeyDown	41324	1	Little	24
480.8950000000000	0	n/a	288538	KeyDown	41324	3	Middle	24
481.0350000000000	0	n/a	288622	KeyDown	41324	2	Ring	24
481.5166666666667	0	n/a	288911	KeyDown	41324	4	Index	24
482.3600000000000	0	n/a	289417	KeyDown	41324	4	Index	24
482.8733333333334	0	n/a	289725	KeyDown	41324	1	Little	24
483.3150000000001	0	n/a	289990	KeyDown	41324	3	Middle	24
483.4166666666667	0	n/a	290051	KeyDown	41324	2	Ring	24
483.5816666666667	0	n/a	290150	KeyDown	41324	4	Index	24
484.2266666666667	0	n/a	290537	KeyDown	41324	4	Index	24
484.6250000000001	0	n/a	290776	KeyDown	41324	1	Little	24
485.1666666666667	0	n/a	291101	KeyDown	41324	3	Middle	24
485.2850000000000	0	n/a	291172	KeyDown	41324	2	Ring	24
485.3566666666667	0	n/a	291215	StopPractice	41324	n/a	n/a	24
485.3583333333333	0	n/a	291216	StartRest	XXXXX	n/a	n/a	24
495.3900000000000	0	n/a	297235	StopRest	XXXXX	n/a	n/a	24
495.3916666666667	0	UPPT001	297236	StartPractice	41324	n/a	n/a	25
495.9600000000000	0	n/a	297577	KeyDown	41324	4	Index	25
496.2866666666667	0	n/a	297773	KeyDown	41324	1	Little	25
496.7333333333333	0	n/a	298041	KeyDown	41324	3	Middle	25
496.8100000000001	0	n/a	298087	KeyDown	41324	2	Ring	25
497.0466666666667	0	n/a	298229	KeyDown	41324	4	Index	25
497.6100000000000	0	n/a	298567	KeyDown	41324	4	Index	25
498.7750000000000	0	n/a	299266	KeyDown	41324	4	Index	25
499.1666666666667	0	n/a	299501	KeyDown	41324	1	Little	25
499.5650000000001	0	n/a	299740	KeyDown	41324	3	Middle	25
499.6433333333334	0	n/a	299787	KeyDown	41324	2	Ring	25
499.8500000000000	0	n/a	299911	KeyDown	41324	4	Index	25
500.8566666666667	0	n/a	300515	KeyDown	41324	4	Index	25
501.2700000000000	0	n/a	300763	KeyDown	41324	1	Little	25
501.7616666666667	0	n/a	301058	KeyDown	41324	3	Middle	25
501.9150000000000	0	n/a	301150	KeyDown	41324	2	Ring	25
502.3250000000000	0	n/a	301396	KeyDown	41324	4	Index	25
503.3583333333333	0	n/a	302016	KeyDown	41324	4	Index	25
503.7950000000000	0	n/a	302278	KeyDown	41324	1	Little	25
504.2133333333334	0	n/a	302529	KeyDown	41324	3	Middle	25
504.3183333333334	0	n/a	302592	KeyDown	41324	2	Ring	25
504.7583333333334	0	n/a	302856	KeyDown	41324	4	Index	25
505.4300000000000	0	n/a	303259	StopPractice	41324	n/a	n/a	25
505.4316666666667	0	n/a	303260	StartRest	XXXXX	n/a	n/a	25
515.4666666666667	0	n/a	309281	StopRest	XXXXX	n/a	n/a	25
515.4683333333334	0	UPPT001	309282	StartPractice	41324	n/a	n/a	26
516.0250000000000	0	n/a	309616	KeyDown	41324	4	Index	26
516.3683333333333	0	n/a	309822	KeyDown	41324	1	Little	26
516.9450000000001	0	n/a	310168	KeyDown	41324	3	Middle	26
517.0466666666667	0	n/a	310229	KeyDown	41324	2	Ring	26
517.4016666666668	0	n/a	310442	KeyDown	41324	4	Index	26
518.0633333333334	0	n/a	310839	KeyDown	41324	4	Index	26
518.4650000000000	0	n/a	311080	KeyDown	41324	1	Little	26
518.9600000000000	0	n/a	311377	KeyDown	41324	3	Middle	26
519.1116666666667	0	n/a	311468	KeyDown	41324	2	Ring	26
519.4766666666667	0	n/a	311687	KeyDown	41324	4	Index	26
520.2916666666667	0	n/a	312176	KeyDown	41324	4	Index	26
520.6566666666668	0	n/a	312395	KeyDown	41324	1	Little	26
521.1500000000000	0	n/a	312691	KeyDown	41324	3	Middle	26
521.2550000000000	0	n/a	312754	KeyDown	41324	2	Ring	26
521.7233333333334	0	n/a	313035	KeyDown	41324	4	Index	26
522.2866666666667	0	n/a	313373	KeyDown	41324	4	Index	26
522.7866666666667	0	n/a	313673	KeyDown	41324	1	Little	26
523.4616666666667	0	n/a	314078	KeyDown	41324	3	Middle	26
523.6300000000000	0	n/a	314179	KeyDown	41324	2	Ring	26
524.0850000000000	0	n/a	314452	KeyDown	41324	4	Index	26
525.0400000000001	0	n/a	315025	KeyDown	41324	4	Index	26
525.5066666666667	0	n/a	315305	StopPractice	41324	n/a	n/a	26
525.5083333333333	0	n/a	315306	StartRest	XXXXX	n/a	n/a	26
535.5416666666667	0	n/a	321326	StopRest	XXXXX	n/a	n/a	26
535.5433333333334	0	UPPT001	321327	StartPractice	41324	n/a	n/a	27
536.0983333333334	0	n/a	321660	KeyDown	41324	4	Index	27
536.4316666666667	0	n/a	321860	KeyDown	41324	1	Little	27
537.0250000000001	0	n/a	322216	KeyDown	41324	3	Middle	27
537.1166666666667	0	n/a	322271	KeyDown	41324	2	Ring	27
537.3950000000000	0	n/a	322438	KeyDown	41324	4	Index	27
538.0050000000000	0	n/a	322804	KeyDown	41324	4	Index	27
538.4016666666668	0	n/a	323042	KeyDown	41324	1	Little	27
538.7483333333333	0	n/a	323250	KeyDown	41324	3	Middle	27
538.8500000000000	0	n/a	323311	KeyDown	41324	2	Ring	27
539.0750000000000	0	n/a	323446	KeyDown	41324	4	Index	27
539.5266666666668	0	n/a	323717	KeyDown	41324	4	Index	27
539.8433333333334	0	n/a	323907	KeyDown	41324	1	Little	27
540.2666666666667	0	n/a	324161	KeyDown	41324	3	Middle	27
540.8233333333334	0	n/a	324495	KeyDown	41324	3	Middle	27
540.9550000000000	0	n/a	324574	KeyDown	41324	2	Ring	27
541.3083333333334	0	n/a	324786	KeyDown	41324	4	Index	27
541.7300000000000	0	n/a	325039	KeyDown	41324	4	Index	27
542.0583333333334	0	n/a	325236	KeyDown	41324	1	Little	27
542.3900000000000	0	n/a	325435	KeyDown	41324	3	Middle	27
542.4816666666667	0	n/a	325490	KeyDown	41324	2	Ring	27
542.6600000000001	0	n/a	325597	KeyDown	41324	4	Index	27
543.1166666666667	0	n/a	325871	KeyDown	41324	4	Index	27
543.7066666666667	0	n/a	326225	KeyDown	41324	1	Little	27
544.1633333333334	0	n/a	326499	KeyDown	41324	3	Middle	27
544.2433333333333	0	n/a	326547	KeyDown	41324	2	Ring	27
544.5333333333334	0	n/a	326721	KeyDown	41324	4	Index	27
544.9916666666667	0	n/a	326996	KeyDown	41324	4	Index	27
545.3500000000000	0	n/a	327211	KeyDown	41324	1	Little	27
545.5816666666667	0	n/a	327350	StopPractice	41324	n/a	n/a	27
545.5833333333334	0	n/a	327351	StartRest	XXXXX	n/a	n/a	27
555.6150000000000	0	n/a	333370	StopRest	XXXXX	n/a	n/a	27
555.6166666666667	0	UPPT001	333371	StartPractice	41324	n/a	n/a	28
556.2283333333334	0	n/a	333738	KeyDown	41324	4	Index	28
556.5600000000001	0	n/a	333937	KeyDown	41324	1	Little	28
556.9250000000001	0	n/a	334156	KeyDown	41324	3	Middle	28
557.0250000000001	0	n/a	334216	KeyDown	41324	2	Ring	28
557.1633333333334	0	n/a	334299	KeyDown	41324	4	Index	28
557.6300000000000	0	n/a	334579	KeyDown	41324	4	Index	28
557.9133333333334	0	n/a	334749	KeyDown	41324	1	Little	28
558.3233333333334	0	n/a	334995	KeyDown	41324	3	Middle	28
558.4300000000001	0	n/a	335059	KeyDown	41324	2	Ring	28
558.6316666666667	0	n/a	335180	KeyDown	41324	4	Index	28
559.1250000000000	0	n/a	335476	KeyDown	41324	4	Index	28
559.4783333333334	0	n/a	335688	KeyDown	41324	1	Little	28
560.0550000000001	0	n/a	336034	KeyDown	41324	3	Middle	28
560.1450000000000	0	n/a	336088	KeyDown	41324	2	Ring	28
560.4283333333334	0	n/a	336258	KeyDown	41324	4	Index	28
560.9500000000000	0	n/a	336571	KeyDown	41324	4	Index	28
561.2083333333334	0	n/a	336726	KeyDown	41324	1	Little	28
561.6216666666667	0	n/a	336974	KeyDown	41324	3	Middle	28
561.7233333333334	0	n/a	337035	KeyDown	41324	2	Ring	28
561.9650000000000	0	n/a	337180	KeyDown	41324	4	Index	28
562.3916666666667	0	n/a	337436	KeyDown	41324	4	Index	28
562.7583333333333	0	n/a	337656	KeyDown	41324	3	Middle	28
562.8950000000000	0	n/a	337738	KeyDown	41324	2	Ring	28
563.6816666666667	0	n/a	338210	KeyDown	41324	4	Index	28
564.1683333333334	0	n/a	338502	KeyDown	41324	1	Little	28
564.8950000000000	0	n/a	338938	KeyDown	41324	3	Middle	28
565.0083333333333	0	n/a	339006	KeyDown	41324	2	Ring	28
565.2633333333333	0	n/a	339159	KeyDown	41324	4	Index	28
565.6550000000001	0	n/a	339394	StopPractice	41324	n/a	n/a	28
565.6566666666668	0	n/a	339395	StartRest	XXXXX	n/a	n/a	28
575.6900000000001	0	n/a	345415	StopRest	XXXXX	n/a	n/a	28
575.6916666666667	0	UPPT001	345416	StartPractice	41324	n/a	n/a	29
576.2683333333333	0	n/a	345762	KeyDown	41324	4	Index	29
576.5400000000001	0	n/a	345925	KeyDown	41324	1	Little	29
576.8783333333333	0	n/a	346128	KeyDown	41324	3	Middle	29
576.9633333333334	0	n/a	346179	KeyDown	41324	2	Ring	29
577.1600000000001	0	n/a	346297	KeyDown	41324	4	Index	29
577.6033333333334	0	n/a	346563	KeyDown	41324	4	Index	29
578.0616666666667	0	n/a	346838	KeyDown	41324	1	Little	29
579.0100000000000	0	n/a	347407	KeyDown	41324	3	Middle	29
579.0983333333334	0	n/a	347460	KeyDown	41324	2	Ring	29
579.3850000000000	0	n/a	347632	KeyDown	41324	4	Index	29
579.8183333333334	0	n/a	347892	KeyDown	41324	4	Index	29
580.1600000000001	0	n/a	348097	KeyDown	41324	1	Little	29
580.5133333333333	0	n/a	348309	KeyDown	41324	3	Middle	29
580.6333333333333	0	n/a	348381	KeyDown	41324	2	Ring	29
580.9200000000001	0	n/a	348553	KeyDown	41324	4	Index	29
581.3766666666667	0	n/a	348827	KeyDown	41324	4	Index	29
581.7533333333333	0	n/a	349053	KeyDown	41324	1	Little	29
582.3050000000001	0	n/a	349384	KeyDown	41324	3	Middle	29
582.4200000000001	0	n/a	349453	KeyDown	41324	2	Ring	29
582.6200000000000	0	n/a	349573	KeyDown	41324	4	Index	29
583.0850000000000	0	n/a	349852	KeyDown	41324	4	Index	29
583.4183333333334	0	n/a	350052	KeyDown	41324	1	Little	29
583.8300000000000	0	n/a	350299	KeyDown	41324	3	Middle	29
583.9233333333334	0	n/a	350355	KeyDown	41324	2	Ring	29
584.1083333333333	0	n/a	350466	KeyDown	41324	4	Index	29
584.8883333333333	0	n/a	350934	KeyDown	41324	4	Index	29
585.2683333333333	0	n/a	351162	KeyDown	41324	1	Little	29
585.6533333333334	0	n/a	351393	KeyDown	41324	3	Middle	29
585.7300000000000	0	n/a	351439	StopPractice	41324	n/a	n/a	29
585.7316666666667	0	n/a	351440	StartRest	XXXXX	n/a	n/a	29
595.7650000000000	0	n/a	357460	StopRest	XXXXX	n/a	n/a	29
595.7666666666667	0	UPPT001	357461	StartPractice	41324	n/a	n/a	30
596.3516666666667	0	n/a	357812	KeyDown	41324	4	Index	30
596.6200000000000	0	n/a	357973	KeyDown	41324	1	Little	30
596.9233333333334	0	n/a	358155	KeyDown	41324	3	Middle	30
596.9916666666667	0	n/a	358196	KeyDown	41324	2	Ring	30
597.1450000000000	0	n/a	358288	KeyDown	41324	4	Index	30
597.6516666666668	0	n/a	358592	KeyDown	41324	4	Index	30
597.9583333333334	0	n/a	358776	KeyDown	41324	1	Little	30
598.7800000000001	0	n/a	359269	KeyDown	41324	3	Middle	30
598.9233333333334	0	n/a	359355	KeyDown	41324	2	Ring	30
599.1583333333334	0	n/a	359496	KeyDown	41324	4	Index	30
599.5866666666667	0	n/a	359753	KeyDown	41324	4	Index	30
600.0833333333334	0	n/a	360051	KeyDown	41324	1	Little	30
600.5900000000000	0	n/a	360355	KeyDown	41324	3	Middle	30
600.7150000000000	0	n/a	360430	KeyDown	41324	2	Ring	30
600.9050000000001	0	n/a	360544	KeyDown	41324	4	Index	30
601.4100000000001	0	n/a	360847	KeyDown	41324	4	Index	30
601.7766666666668	0	n/a	361067	KeyDown	41324	1	Little	30
602.1233333333333	0	n/a	361275	KeyDown	41324	3	Middle	30
602.2483333333333	0	n/a	361350	KeyDown	41324	2	Ring	30
602.4183333333334	0	n/a	361452	KeyDown	41324	4	Index	30
602.9383333333334	0	n/a	361764	KeyDown	41324	4	Index	30
603.2733333333334	0	n/a	361965	KeyDown	41324	1	Little	30
603.6550000000001	0	n/a	362194	KeyDown	41324	3	Middle	30
603.7883333333334	0	n/a	362274	KeyDown	41324	2	Ring	30
604.0450000000001	0	n/a	362428	KeyDown	41324	4	Index	30
604.4850000000000	0	n/a	362692	KeyDown	41324	4	Index	30
605.1200000000000	0	n/a	363073	KeyDown	41324	1	Little	30
605.5966666666667	0	n/a	363359	KeyDown	41324	3	Middle	30
605.7566666666667	0	n/a	363455	KeyDown	41324	2	Ring	30
605.8050000000001	0	n/a	363484	StopPractice	41324	n/a	n/a	30
605.8066666666667	0	n/a	363485	StartRest	XXXXX	n/a	n/a	30
615.8416666666667	0	n/a	369506	StopRest	XXXXX	n/a	n/a	30
615.8433333333334	0	UPPT001	369507	StartPractice	41324	n/a	n/a	31
616.4300000000001	0	n/a	369859	KeyDown	41324	4	Index	31
616.7466666666667	0	n/a	370049	KeyDown	41324	1	Little	31
617.0316666666668	0	n/a	370220	KeyDown	41324	3	Middle	31
617.1383333333333	0	n/a	370284	KeyDown	41324	2	Ring	31
617.2833333333334	0	n/a	370371	KeyDown	41324	4	Index	31
617.8400000000000	0	n/a	370705	KeyDown	41324	4	Index	31
618.2616666666667	0	n/a	370958	KeyDown	41324	1	Little	31
618.6750000000001	0	n/a	371206	KeyDown	41324	3	Middle	31
618.7766666666668	0	n/a	371267	KeyDown	41324	2	Ring	31
618.9033333333334	0	n/a	371343	KeyDown	41324	4	Index	31
619.4216666666667	0	n/a	371654	KeyDown	41324	4	Index	31
619.8783333333333	0	n/a	371928	KeyDown	41324	1	Little	31
620.3800000000000	0	n/a	372229	KeyDown	41324	3	Middle	31
620.5233333333334	0	n/a	372315	KeyDown	41324	2	Ring	31
620.6683333333334	0	n/a	372402	KeyDown	41324	4	Index	31
621.1950000000001	0	n/a	372718	KeyDown	41324	4	Index	31
621.5883333333334	0	n/a	372954	KeyDown	41324	1	Little	31
621.9566666666667	0	n/a	373175	KeyDown	41324	3	Middle	31
622.1016666666667	0	n/a	373262	KeyDown	41324	2	Ring	31
622.2966666666667	0	n/a	373379	KeyDown	41324	4	Index	31
622.8283333333334	0	n/a	373698	KeyDown	41324	4	Index	31
623.2700000000001	0	n/a	373963	KeyDown	41324	1	Little	31
623.8166666666667	0	n/a	374291	KeyDown	41324	3	Middle	31
623.9716666666667	0	n/a	374384	KeyDown	41324	2	Ring	31
624.2666666666667	0	n/a	374561	KeyDown	41324	4	Index	31
624.7733333333334	0	n/a	374865	KeyDown	41324	4	Index	31
625.1466666666668	0	n/a	375089	KeyDown	41324	1	Little	31
625.4500000000000	0	n/a	375271	KeyDown	41324	3	Middle	31
625.6300000000000	0	n/a	375379	KeyDown	41324	2	Ring	31
625.7966666666667	0	n/a	375479	KeyDown	41324	4	Index	31
625.8816666666667	0	n/a	375530	StopPractice	41324	n/a	n/a	31
625.8833333333333	0	n/a	375531	StartRest	XXXXX	n/a	n/a	31
635.9150000000001	0	n/a	381550	StopRest	XXXXX	n/a	n/a	31
635.9166666666667	0	UPPT001	381551	StartPractice	41324	n/a	n/a	32
636.4600000000000	0	n/a	381877	KeyDown	41324	4	Index	32
636.7283333333334	0	n/a	382038	KeyDown	41324	1	Little	32
637.0633333333334	0	n/a	382239	KeyDown	41324	3	Middle	32
637.1683333333334	0	n/a	382302	KeyDown	41324	2	Ring	32
637.3216666666667	0	n/a	382394	KeyDown	41324	4	Index	32
637.7266666666667	0	n/a	382637	KeyDown	41324	4	Index	32
638.0133333333333	0	n/a	382809	KeyDown	41324	1	Little	32
638.3600000000000	0	n/a	383017	KeyDown	41324	3	Middle	32
638.5016666666667	0	n/a	383102	KeyDown	41324	2	Ring	32
638.6033333333334	0	n/a	383163	KeyDown	41324	4	Index	32
639.0400000000001	0	n/a	383425	KeyDown	41324	4	Index	32
639.3783333333333	0	n/a	383628	KeyDown	41324	1	Little	32
639.7583333333333	0	n/a	383856	KeyDown	41324	3	Middle	32
639.8600000000000	0	n/a	383917	KeyDown	41324	2	Ring	32
639.9983333333333	0	n/a	384000	KeyDown	41324	4	Index	32
640.7100000000000	0	n/a	384427	KeyDown	41324	4	Index	32
641.1533333333334	0	n/a	384693	KeyDown	41324	1	Little	32
641.6966666666667	0	n/a	385019	KeyDown	41324	3	Middle	32
641.8116666666667	0	n/a	385088	KeyDown	41324	2	Ring	32
641.9266666666667	0	n/a	385157	KeyDown	41324	4	Index	32
642.3033333333334	0	n/a	385383	KeyDown	41324	4	Index	32
642.7150000000000	0	n/a	385630	KeyDown	41324	1	Little	32
643.1000000000000	0	n/a	385861	KeyDown	41324	3	Middle	32
643.2216666666667	0	n/a	385934	KeyDown	41324	2	Ring	32
643.4033333333334	0	n/a	386043	KeyDown	41324	4	Index	32
643.8500000000000	0	n/a	386311	KeyDown	41324	4	Index	32
644.2916666666667	0	n/a	386576	KeyDown	41324	1	Little	32
644.6900000000001	0	n/a	386815	KeyDown	41324	3	Middle	32
644.8100000000001	0	n/a	386887	KeyDown	41324	2	Ring	32
644.9683333333334	0	n/a	386982	KeyDown	41324	4	Index	32
645.3950000000001	0	n/a	387238	KeyDown	41324	4	Index	32
645.7533333333333	0	n/a	387453	KeyDown	41324	1	Little	32
645.9550000000000	0	n/a	387574	StopPractice	41324	n/a	n/a	32
645.9566666666667	0	n/a	387575	StartRest	XXXXX	n/a	n/a	32
655.9900000000000	0	n/a	393595	StopRest	XXXXX	n/a	n/a	32
655.9916666666667	0	UPPT001	393596	StartPractice	41324	n/a	n/a	33
656.5700000000001	0	n/a	393943	KeyDown	41324	4	Index	33
656.9900000000000	0	n/a	394195	KeyDown	41324	1	Little	33
657.3133333333334	0	n/a	394389	KeyDown	41324	3	Middle	33
657.4433333333334	0	n/a	394467	KeyDown	41324	2	Ring	33
657.5483333333334	0	n/a	394530	KeyDown	41324	4	Index	33
657.8800000000000	0	n/a	394729	KeyDown	41324	4	Index	33
658.1783333333334	0	n/a	394908	KeyDown	41324	1	Little	33
658.4750000000000	0	n/a	395086	KeyDown	41324	3	Middle	33
658.7183333333334	0	n/a	395232	KeyDown	41324	4	Index	33
659.4200000000001	0	n/a	395653	KeyDown	41324	4	Index	33
659.7600000000000	0	n/a	395857	KeyDown	41324	1	Little	33
660.3766666666667	0	n/a	396227	KeyDown	41324	3	Middle	33
660.4966666666667	0	n/a	396299	KeyDown	41324	2	Ring	33
660.6716666666667	0	n/a	396404	KeyDown	41324	4	Index	33
661.1950000000001	0	n/a	396718	KeyDown	41324	4	Index	33
661.5166666666668	0	n/a	396911	KeyDown	41324	1	Little	33
662.1616666666667	0	n/a	397298	KeyDown	41324	3	Middle	33
662.3000000000001	0	n/a	397381	KeyDown	41324	2	Ring	33
662.6133333333333	0	n/a	397569	KeyDown	41324	4	Index	33
663.0383333333334	0	n/a	397824	KeyDown	41324	4	Index	33
663.4116666666667	0	n/a	398048	KeyDown	41324	1	Little	33
664.0833333333334	0	n/a	398451	KeyDown	41324	3	Middle	33
664.1983333333334	0	n/a	398520	KeyDown	41324	2	Ring	33
664.4750000000000	0	n/a	398686	KeyDown	41324	4	Index	33
665.0133333333333	0	n/a	399009	KeyDown	41324	4	Index	33
665.3966666666668	0	n/a	399239	KeyDown	41324	1	Little	33
665.7916666666667	0	n/a	399476	KeyDown	41324	3	Middle	33
665.9883333333333	0	n/a	399594	KeyDown	41324	2	Ring	33
666.0300000000001	0	n/a	399619	StopPractice	41324	n/a	n/a	33
666.0316666666668	0	n/a	399620	StartRest	XXXXX	n/a	n/a	33
676.0650000000001	0	n/a	405640	StopRest	XXXXX	n/a	n/a	33
676.0666666666667	0	UPPT001	405641	StartPractice	41324	n/a	n/a	34
676.5750000000000	0	n/a	405946	KeyDown	41324	4	Index	34
676.8150000000001	0	n/a	406090	KeyDown	41324	1	Little	34
677.1950000000001	0	n/a	406318	KeyDown	41324	3	Middle	34
677.3133333333334	0	n/a	406389	KeyDown	41324	2	Ring	34
677.4650000000000	0	n/a	406480	KeyDown	41324	4	Index	34
677.8983333333334	0	n/a	406740	KeyDown	41324	4	Index	34
678.1933333333334	0	n/a	406917	KeyDown	41324	1	Little	34
678.5433333333334	0	n/a	407127	KeyDown	41324	3	Middle	34
678.6783333333334	0	n/a	407208	KeyDown	41324	2	Ring	34
678.8100000000001	0	n/a	407287	KeyDown	41324	4	Index	34
679.3133333333334	0	n/a	407589	KeyDown	41324	4	Index	34
679.6100000000000	0	n/a	407767	KeyDown	41324	1	Little	34
680.1550000000001	0	n/a	408094	KeyDown	41324	3	Middle	34
680.3116666666667	0	n/a	408188	KeyDown	41324	2	Ring	34
680.4550000000000	0	n/a	408274	KeyDown	41324	4	Index	34
680.8350000000000	0	n/a	408502	KeyDown	41324	4	Index	34
681.2150000000000	0	n/a	408730	KeyDown	41324	1	Little	34
681.5783333333334	0	n/a	408948	KeyDown	41324	3	Middle	34
681.7200000000000	0	n/a	409033	KeyDown	41324	2	Ring	34
681.8750000000000	0	n/a	409126	KeyDown	41324	4	Index	34
682.2783333333334	0	n/a	409368	KeyDown	41324	4	Index	34
682.6683333333334	0	n/a	409602	KeyDown	41324	1	Little	34
683.3133333333334	0	n/a	409989	KeyDown	41324	3	Middle	34
683.4083333333334	0	n/a	410046	KeyDown	41324	2	Ring	34
683.5983333333334	0	n/a	410160	KeyDown	41324	4	Index	34
684.0883333333334	0	n/a	410454	KeyDown	41324	4	Index	34
684.4650000000000	0	n/a	410680	KeyDown	41324	1	Little	34
685.0500000000001	0	n/a	411031	KeyDown	41324	3	Middle	34
685.2483333333333	0	n/a	411150	KeyDown	41324	2	Ring	34
685.3933333333334	0	n/a	411237	KeyDown	41324	4	Index	34
686.0533333333334	0	n/a	411633	KeyDown	41324	4	Index	34
686.1050000000000	0	n/a	411664	StopPractice	41324	n/a	n/a	34
686.1066666666667	0	n/a	411665	StartRest	XXXXX	n/a	n/a	34
696.1400000000001	0	n/a	417685	StopRest	XXXXX	n/a	n/a	34
696.1416666666668	0	UPPT001	417686	StartPractice	41324	n/a	n/a	35
696.6100000000000	0	n/a	417967	KeyDown	41324	4	Index	35
696.8316666666667	0	n/a	418100	KeyDown	41324	1	Little	35
697.1283333333333	0	n/a	418278	KeyDown	41324	3	Middle	35
697.2283333333334	0	n/a	418338	KeyDown	41324	2	Ring	35
697.3850000000000	0	n/a	418432	KeyDown	41324	4	Index	35
697.7483333333333	0	n/a	418650	KeyDown	41324	4	Index	35
698.0100000000000	0	n/a	418807	KeyDown	41324	1	Little	35
698.3100000000001	0	n/a	418987	KeyDown	41324	3	Middle	35
698.4033333333334	0	n/a	419043	KeyDown	41324	2	Ring	35
698.5400000000001	0	n/a	419125	KeyDown	41324	4	Index	35
698.9000000000001	0	n/a	419341	KeyDown	41324	4	Index	35
699.1650000000001	0	n/a	419500	KeyDown	41324	1	Little	35
699.5366666666667	0	n/a	419723	KeyDown	41324	3	Middle	35
699.6900000000001	0	n/a	419815	KeyDown	41324	2	Ring	35
699.8316666666667	0	n/a	419900	KeyDown	41324	4	Index	35
700.1350000000000	0	n/a	420082	KeyDown	41324	4	Index	35
700.5650000000001	0	n/a	420340	KeyDown	41324	1	Little	35
701.0583333333334	0	n/a	420636	KeyDown	41324	3	Middle	35
701.1833333333334	0	n/a	420711	KeyDown	41324	2	Ring	35
701.3400000000000	0	n/a	420805	KeyDown	41324	4	Index	35
701.8683333333333	0	n/a	421122	KeyDown	41324	4	Index	35
702.2666666666668	0	n/a	421361	KeyDown	41324	1	Little	35
702.6033333333334	0	n/a	421563	KeyDown	41324	3	Middle	35
702.7583333333333	0	n/a	421656	KeyDown	41324	2	Ring	35
702.8883333333334	0	n/a	421734	KeyDown	41324	4	Index	35
703.6950000000001	0	n/a	422218	KeyDown	41324	4	Index	35
704.0366666666667	0	n/a	422423	KeyDown	41324	1	Little	35
704.4600000000000	0	n/a	422677	KeyDown	41324	3	Middle	35
704.5900000000000	0	n/a	422755	KeyDown	41324	2	Ring	35
704.7583333333333	0	n/a	422856	KeyDown	41324	4	Index	35
705.2083333333334	0	n/a	423126	KeyDown	41324	4	Index	35
705.5866666666667	0	n/a	423353	KeyDown	41324	1	Little	35
706.1800000000001	0	n/a	423709	StopPractice	41324	n/a	n/a	35
706.1816666666667	0	n/a	423710	StartRest	XXXXX	n/a	n/a	35
716.2150000000000	0	n/a	429730	StopRest	XXXXX	n/a	n/a	35
716.2166666666667	0	UPPT001	429731	StartPractice	41324	n/a	n/a	36
716.7983333333334	0	n/a	430080	KeyDown	41324	4	Index	36
717.0016666666667	0	n/a	430202	KeyDown	41324	1	Little	36
717.4633333333334	0	n/a	430479	KeyDown	41324	3	Middle	36
717.5900000000000	0	n/a	430555	KeyDown	41324	2	Ring	36
717.7100000000000	0	n/a	430627	KeyDown	41324	4	Index	36
718.1283333333333	0	n/a	430878	KeyDown	41324	4	Index	36
718.3833333333333	0	n/a	431031	KeyDown	41324	1	Little	36
718.6650000000001	0	n/a	431200	KeyDown	41324	3	Middle	36
718.7733333333334	0	n/a	431265	KeyDown	41324	2	Ring	36
718.9166666666667	0	n/a	431351	KeyDown	41324	4	Index	36
719.2000000000000	0	n/a	431521	KeyDown	41324	4	Index	36
719.7600000000000	0	n/a	431857	KeyDown	41324	1	Little	36
720.0666666666667	0	n/a	432041	KeyDown	41324	3	Middle	36
720.1866666666667	0	n/a	432113	KeyDown	41324	2	Ring	36
720.3366666666667	0	n/a	432203	KeyDown	41324	4	Index	36
720.6350000000000	0	n/a	432382	KeyDown	41324	4	Index	36
720.9966666666667	0	n/a	432599	KeyDown	41324	1	Little	36
721.6350000000000	0	n/a	432982	KeyDown	41324	3	Middle	36
721.7350000000000	0	n/a	433042	KeyDown	41324	2	Ring	36
722.0216666666668	0	n/a	433214	KeyDown	41324	4	Index	36
722.7033333333334	0	n/a	433623	KeyDown	41324	4	Index	36
723.2933333333334	0	n/a	433977	KeyDown	41324	1	Little	36
724.0083333333333	0	n/a	434406	KeyDown	41324	3	Middle	36
724.1250000000000	0	n/a	434476	KeyDown	41324	2	Ring	36
724.2616666666668	0	n/a	434558	KeyDown	41324	4	Index	36
724.6800000000001	0	n/a	434809	KeyDown	41324	4	Index	36
725.1700000000001	0	n/a	435103	KeyDown	41324	1	Little	36
725.6133333333333	0	n/a	435369	KeyDown	41324	3	Middle	36
725.7733333333334	0	n/a	435465	KeyDown	41324	2	Ring	36
725.9033333333334	0	n/a	435543	KeyDown	41324	4	Index	36
726.2550000000000	0	n/a	435754	StopPractice	41324	n/a	n/a	36
726.2566666666667	0	n/a	435755	StartRest	XXXXX	n/a	n/a	36
736.2916666666667	0	n/a	441776	StopRest	XXXXX	n/a	n/a	36
