onset	duration	channel	onset_sample_idx	event_type	target_sequence	keypress_id	finger_label	trial_number
14.5600000000000	0	UPPT001	8737	StartPractice	41324	n/a	n/a	1
16.0566666666667	0	n/a	9635	KeyDown	41324	4	Index	1
16.5533333333333	0	n/a	9933	KeyDown	41324	1	Little	1
17.2000000000000	0	n/a	10321	KeyDown	41324	3	Middle	1
17.7616666666667	0	n/a	10658	KeyDown	41324	2	Ring	1
18.2533333333333	0	n/a	10953	KeyDown	41324	4	Index	1
19.7400000000000	0	n/a	11845	KeyDown	41324	4	Index	1
20.2200000000000	0	n/a	12133	KeyDown	41324	1	Little	1
20.8083333333333	0	n/a	12486	KeyDown	41324	3	Middle	1
21.2866666666667	0	n/a	12773	KeyDown	41324	2	Ring	1
21.7066666666667	0	n/a	13025	KeyDown	41324	4	Index	1
22.6983333333333	0	n/a	13620	KeyDown	41324	4	Index	1
23.2333333333333	0	n/a	13941	KeyDown	41324	1	Little	1
23.7483333333333	0	n/a	14250	KeyDown	41324	3	Middle	1
24.2533333333333	0	n/a	14553	KeyDown	41324	2	Ring	1
24.5983333333333	0	n/a	14760	StopPractice	41324	n/a	n/a	1
24.6000000000000	0	n/a	14761	StartRest	XXXXX	n/a	n/a	1
34.6333333333333	0	n/a	20781	StopRest	XXXXX	n/a	n/a	1
34.6350000000000	0	UPPT001	20782	StartPractice	41324	n/a	n/a	2
35.9500000000000	0	n/a	21571	KeyDown	41324	4	Index	2
36.4333333333333	0	n/a	21861	KeyDown	41324	1	Little	2
37.0033333333333	0	n/a	22203	KeyDown	41324	3	Middle	2
37.4400000000000	0	n/a	22465	KeyDown	41324	2	Ring	2
37.7966666666667	0	n/a	22679	KeyDown	41324	4	Index	2
38.5150000000000	0	n/a	23110	KeyDown	41324	4	Index	2
38.9000000000000	0	n/a	23341	KeyDown	41324	1	Little	2
39.3583333333333	0	n/a	23616	KeyDown	41324	3	Middle	2
39.7733333333333	0	n/a	23865	KeyDown	41324	2	Ring	2
40.1316666666667	0	n/a	24080	KeyDown	41324	4	Index	2
40.7916666666667	0	n/a	24476	KeyDown	41324	4	Index	2
41.1466666666667	0	n/a	24689	KeyDown	41324	1	Little	2
41.7616666666667	0	n/a	25058	KeyDown	41324	3	Middle	2
42.1216666666667	0	n/a	25274	KeyDown	41324	2	Ring	2
42.4450000000000	0	n/a	25468	KeyDown	41324	4	Index	2
43.1183333333333	0	n/a	25872	KeyDown	41324	4	Index	2
43.4583333333333	0	n/a	26076	KeyDown	41324	1	Little	2
43.8216666666667	0	n/a	26294	KeyDown	41324	3	Middle	2
44.1616666666667	0	n/a	26498	KeyDown	41324	2	Ring	2
44.4866666666667	0	n/a	26693	KeyDown	41324	4	Index	2
44.6733333333333	0	n/a	26805	StopPractice	41324	n/a	n/a	2
44.6750000000000	0	n/a	26806	StartRest	XXXXX	n/a	n/a	2
54.7100000000000	0	n/a	32827	StopRest	XXXXX	n/a	n/a	2
54.7116666666667	0	UPPT001	32828	StartPractice	41324	n/a	n/a	3
55.2933333333333	0	n/a	33177	KeyDown	41324	4	Index	3
55.6900000000000	0	n/a	33415	KeyDown	41324	1	Little	3
56.0650000000000	0	n/a	33640	KeyDown	41324	3	Middle	3
56.4000000000000	0	n/a	33841	KeyDown	41324	2	Ring	3
56.6666666666667	0	n/a	34001	KeyDown	41324	4	Index	3
57.1600000000000	0	n/a	34297	KeyDown	41324	4	Index	3
57.4850000000000	0	n/a	34492	KeyDown	41324	1	Little	3
57.8450000000000	0	n/a	34708	KeyDown	41324	3	Middle	3
58.2100000000000	0	n/a	34927	KeyDown	41324	2	Ring	3
58.6066666666667	0	n/a	35165	KeyDown	41324	4	Index	3
59.2383333333333	0	n/a	35544	KeyDown	41324	4	Index	3
59.5800000000000	0	n/a	35749	KeyDown	41324	1	Little	3
59.9400000000000	0	n/a	35965	KeyDown	41324	3	Middle	3
60.3000000000000	0	n/a	36181	KeyDown	41324	2	Ring	3
60.6033333333333	0	n/a	36363	KeyDown	41324	4	Index	3
61.2100000000000	0	n/a	36727	KeyDown	41324	4	Index	3
61.5666666666667	0	n/a	36941	KeyDown	41324	1	Little	3
61.9916666666667	0	n/a	37196	KeyDown	41324	3	Middle	3
62.3150000000000	0	n/a	37390	KeyDown	41324	2	Ring	3
62.6200000000000	0	n/a	37573	KeyDown	41324	4	Index	3
63.3783333333333	0	n/a	38028	KeyDown	41324	4	Index	3
63.7100000000000	0	n/a	38227	KeyDown	41324	1	Little	3
64.1400000000000	0	n/a	38485	KeyDown	41324	3	Middle	3
64.4983333333333	0	n/a	38700	KeyDown	41324	2	Ring	3
64.7500000000000	0	n/a	38851	StopPractice	41324	n/a	n/a	3
64.7516666666667	0	n/a	38852	StartRest	XXXXX	n/a	n/a	3
74.7833333333333	0	n/a	44871	StopRest	XXXXX	n/a	n/a	3
74.7850000000000	0	UPPT001	44872	StartPractice	41324	n/a	n/a	4
75.3200000000000	0	n/a	45193	KeyDown	41324	4	Index	4
75.6516666666667	0	n/a	45392	KeyDown	41324	1	Little	4
76.0650000000000	0	n/a	45640	KeyDown	41324	2	Ring	4
77.6366666666667	0	n/a	46583	KeyDown	41324	4	Index	4
78.2733333333333	0	n/a	46965	KeyDown	41324	4	Index	4
78.5450000000000	0	n/a	47128	KeyDown	41324	1	Little	4
78.8333333333333	0	n/a	47301	KeyDown	41324	3	Middle	4
79.1183333333333	0	n/a	47472	KeyDown	41324	2	Ring	4
79.4116666666667	0	n/a	47648	KeyDown	41324	4	Index	4
79.9166666666667	0	n/a	47951	KeyDown	41324	4	Index	4
80.1700000000000	0	n/a	48103	KeyDown	41324	1	Little	4
80.5433333333333	0	n/a	48327	KeyDown	41324	3	Middle	4
80.8266666666667	0	n/a	48497	KeyDown	41324	2	Ring	4
81.0733333333333	0	n/a	48645	KeyDown	41324	4	Index	4
81.6683333333333	0	n/a	49002	KeyDown	41324	4	Index	4
81.9533333333333	0	n/a	49173	KeyDown	41324	1	Little	4
82.3383333333333	0	n/a	49404	KeyDown	41324	3	Middle	4
82.6650000000000	0	n/a	49600	KeyDown	41324	2	Ring	4
82.9483333333333	0	n/a	49770	KeyDown	41324	4	Index	4
83.6350000000000	0	n/a	50182	KeyDown	41324	4	Index	4
83.8933333333333	0	n/a	50337	KeyDown	41324	1	Little	4
84.2433333333333	0	n/a	50547	KeyDown	41324	3	Middle	4
84.5683333333333	0	n/a	50742	KeyDown	41324	2	Ring	4
84.8233333333333	0	n/a	50895	StopPractice	41324	n/a	n/a	4
84.8250000000000	0	n/a	50896	StartRest	XXXXX	n/a	n/a	4
94.8583333333333	0	n/a	56916	StopRest	XXXXX	n/a	n/a	4
94.8600000000000	0	UPPT001	56917	StartPractice	41324	n/a	n/a	5
95.3666666666667	0	n/a	57221	KeyDown	41324	4	Index	5
95.6783333333333	0	n/a	57408	KeyDown	41324	1	Little	5
96.1950000000000	0	n/a	57718	KeyDown	41324	3	Middle	5
96.4750000000000	0	n/a	57886	KeyDown	41324	2	Ring	5
96.7450000000000	0	n/a	58048	KeyDown	41324	4	Index	5
97.2700000000000	0	n/a	58363	KeyDown	41324	4	Index	5
97.5350000000000	0	n/a	58522	KeyDown	41324	1	Little	5
97.8766666666667	0	n/a	58727	KeyDown	41324	3	Middle	5
98.4566666666667	0	n/a	59075	KeyDown	41324	4	Index	5
99.0216666666667	0	n/a	59414	KeyDown	41324	4	Index	5
99.2766666666667	0	n/a	59567	KeyDown	41324	1	Little	5
99.6466666666667	0	n/a	59789	KeyDown	41324	3	Middle	5
99.9116666666667	0	n/a	59948	KeyDown	41324	2	Ring	5
100.1866666666667	0	n/a	60113	KeyDown	41324	4	Index	5
100.7100000000000	0	n/a	60427	KeyDown	41324	4	Index	5
100.9583333333333	0	n/a	60576	KeyDown	41324	1	Little	5
101.3166666666667	0	n/a	60791	KeyDown	41324	3	Middle	5
101.6666666666667	0	n/a	61001	KeyDown	41324	2	Ring	5
101.9216666666667	0	n/a	61154	KeyDown	41324	4	Index	5
102.3883333333333	0	n/a	61434	KeyDown	41324	4	Index	5
102.6500000000000	0	n/a	61591	KeyDown	41324	1	Little	5
103.0083333333333	0	n/a	61806	KeyDown	41324	3	Middle	5
103.3200000000000	0	n/a	61993	KeyDown	41324	2	Ring	5
103.6766666666667	0	n/a	62207	KeyDown	41324	4	Index	5
104.2216666666667	0	n/a	62534	KeyDown	41324	4	Index	5
104.5316666666667	0	n/a	62720	KeyDown	41324	1	Little	5
104.8983333333333	0	n/a	62940	StopPractice	41324	n/a	n/a	5
104.9000000000000	0	n/a	62941	StartRest	XXXXX	n/a	n/a	5
114.9333333333333	0	n/a	68961	StopRest	XXXXX	n/a	n/a	5
114.9350000000000	0	UPPT001	68962	StartPractice	41324	n/a	n/a	6
115.4416666666667	0	n/a	69266	KeyDown	41324	4	Index	6
115.7183333333333	0	n/a	69432	KeyDown	41324	1	Little	6
116.0900000000000	0	n/a	69655	KeyDown	41324	3	Middle	6
116.3850000000000	0	n/a	69832	KeyDown	41324	2	Ring	6
116.6633333333333	0	n/a	69999	KeyDown	41324	4	Index	6
117.2983333333333	0	n/a	70380	KeyDown	41324	4	Index	6
117.5666666666667	0	n/a	70541	KeyDown	41324	1	Little	6
118.0616666666667	0	n/a	70838	KeyDown	41324	3	Middle	6
118.4483333333333	0	n/a	71070	KeyDown	41324	2	Ring	6
118.7316666666667	0	n/a	71240	KeyDown	41324	4	Index	6
119.2133333333333	0	n/a	71529	KeyDown	41324	4	Index	6
119.4816666666667	0	n/a	71690	KeyDown	41324	1	Little	6
119.8183333333333	0	n/a	71892	KeyDown	41324	3	Middle	6
120.1783333333333	0	n/a	72108	KeyDown	41324	2	Ring	6
120.4766666666667	0	n/a	72287	KeyDown	41324	4	Index	6
120.9316666666667	0	n/a	72560	KeyDown	41324	4	Index	6
121.2250000000000	0	n/a	72736	KeyDown	41324	1	Little	6
121.6183333333333	0	n/a	72972	KeyDown	41324	3	Middle	6
121.8716666666667	0	n/a	73124	KeyDown	41324	2	Ring	6
122.1566666666667	0	n/a	73295	KeyDown	41324	4	Index	6
122.6483333333333	0	n/a	73590	KeyDown	41324	4	Index	6
122.9433333333333	0	n/a	73767	KeyDown	41324	1	Little	6
123.3650000000000	0	n/a	74020	KeyDown	41324	3	Middle	6
123.6383333333333	0	n/a	74184	KeyDown	41324	2	Ring	6
123.9650000000000	0	n/a	74380	KeyDown	41324	4	Index	6
124.4633333333333	0	n/a	74679	KeyDown	41324	4	Index	6
124.7466666666667	0	n/a	74849	KeyDown	41324	1	Little	6
124.9733333333333	0	n/a	74985	StopPractice	41324	n/a	n/a	6
124.9750000000000	0	n/a	74986	StartRest	XXXXX	n/a	n/a	6
135.0083333333334	0	n/a	81006	StopRest	XXXXX	n/a	n/a	6
135.0100000000000	0	UPPT001	81007	StartPractice	41324	n/a	n/a	7
135.5933333333333	0	n/a	81357	KeyDown	41324	4	Index	7
135.9333333333333	0	n/a	81561	KeyDown	41324	1	Little	7
136.2933333333334	0	n/a	81777	KeyDown	41324	3	Middle	7
136.6200000000000	0	n/a	81973	KeyDown	41324	2	Ring	7
136.9666666666667	0	n/a	82181	KeyDown	41324	4	Index	7
137.5500000000000	0	n/a	82531	KeyDown	41324	4	Index	7
137.8216666666667	0	n/a	82694	KeyDown	41324	1	Little	7
138.1666666666667	0	n/a	82901	KeyDown	41324	4	Index	7
139.4583333333333	0	n/a	83676	KeyDown	41324	3	Middle	7
139.7650000000000	0	n/a	83860	KeyDown	41324	2	Ring	7
140.0083333333334	0	n/a	84006	KeyDown	41324	4	Index	7
140.5483333333333	0	n/a	84330	KeyDown	41324	4	Index	7
140.8300000000000	0	n/a	84499	KeyDown	41324	1	Little	7
141.3250000000000	0	n/a	84796	KeyDown	41324	3	Middle	7
141.6166666666667	0	n/a	84971	KeyDown	41324	2	Ring	7
141.8233333333334	0	n/a	85095	KeyDown	41324	4	Index	7
142.3533333333334	0	n/a	85413	KeyDown	41324	4	Index	7
142.6166666666667	0	n/a	85571	KeyDown	41324	1	Little	7
143.0000000000000	0	n/a	85801	KeyDown	41324	3	Middle	7
143.3083333333333	0	n/a	85986	KeyDown	41324	2	Ring	7
143.6233333333333	0	n/a	86175	KeyDown	41324	4	Index	7
144.7466666666667	0	n/a	86849	KeyDown	41324	4	Index	7
144.9816666666667	0	n/a	86990	KeyDown	41324	1	Little	7
145.0483333333333	0	n/a	87030	StopPractice	41324	n/a	n/a	7
145.0500000000000	0	n/a	87031	StartRest	XXXXX	n/a	n/a	7
155.0833333333333	0	n/a	93051	StopRest	XXXXX	n/a	n/a	7
155.0850000000000	0	UPPT001	93052	StartPractice	41324	n/a	n/a	8
155.5650000000000	0	n/a	93340	KeyDown	41324	4	Index	8
155.9233333333333	0	n/a	93555	KeyDown	41324	1	Little	8
156.2883333333334	0	n/a	93774	KeyDown	41324	3	Middle	8
156.5666666666667	0	n/a	93941	KeyDown	41324	2	Ring	8
156.8433333333333	0	n/a	94107	KeyDown	41324	4	Index	8
157.4516666666667	0	n/a	94472	KeyDown	41324	4	Index	8
157.7333333333333	0	n/a	94641	KeyDown	41324	1	Little	8
158.1250000000000	0	n/a	94876	KeyDown	41324	2	Ring	8
158.8600000000000	0	n/a	95317	KeyDown	41324	3	Middle	8
159.0983333333334	0	n/a	95460	KeyDown	41324	4	Index	8
159.6416666666667	0	n/a	95786	KeyDown	41324	4	Index	8
159.9233333333333	0	n/a	95955	KeyDown	41324	1	Little	8
160.3316666666667	0	n/a	96200	KeyDown	41324	3	Middle	8
160.5550000000000	0	n/a	96334	KeyDown	41324	2	Ring	8
160.7933333333334	0	n/a	96477	KeyDown	41324	4	Index	8
161.5250000000000	0	n/a	96916	KeyDown	41324	4	Index	8
161.7916666666667	0	n/a	97076	KeyDown	41324	1	Little	8
162.1783333333333	0	n/a	97308	KeyDown	41324	3	Middle	8
162.4916666666667	0	n/a	97496	KeyDown	41324	2	Ring	8
162.7816666666667	0	n/a	97670	KeyDown	41324	4	Index	8
163.4033333333333	0	n/a	98043	KeyDown	41324	4	Index	8
163.6716666666667	0	n/a	98204	KeyDown	41324	1	Little	8
164.0000000000000	0	n/a	98401	KeyDown	41324	4	Index	8
164.1500000000000	0	n/a	98491	KeyDown	41324	3	Middle	8
164.4450000000000	0	n/a	98668	KeyDown	41324	2	Ring	8
164.7133333333333	0	n/a	98829	KeyDown	41324	4	Index	8
165.1233333333333	0	n/a	99075	StopPractice	41324	n/a	n/a	8
165.1250000000000	0	n/a	99076	StartRest	XXXXX	n/a	n/a	8
175.1566666666667	0	n/a	105095	StopRest	XXXXX	n/a	n/a	8
175.1583333333333	0	UPPT001	105096	StartPractice	41324	n/a	n/a	9
175.6133333333333	0	n/a	105369	KeyDown	41324	4	Index	9
175.9216666666667	0	n/a	105554	KeyDown	41324	1	Little	9
176.2866666666667	0	n/a	105773	KeyDown	41324	3	Middle	9
176.6100000000000	0	n/a	105967	KeyDown	41324	2	Ring	9
176.9266666666667	0	n/a	106157	KeyDown	41324	4	Index	9
177.5766666666667	0	n/a	106547	KeyDown	41324	4	Index	9
177.8533333333334	0	n/a	106713	KeyDown	41324	1	Little	9
178.2166666666667	0	n/a	106931	KeyDown	41324	3	Middle	9
178.4850000000000	0	n/a	107092	KeyDown	41324	2	Ring	9
178.7700000000000	0	n/a	107263	KeyDown	41324	4	Index	9
179.2766666666667	0	n/a	107567	KeyDown	41324	4	Index	9
179.5750000000000	0	n/a	107746	KeyDown	41324	1	Little	9
180.0500000000000	0	n/a	108031	KeyDown	41324	3	Middle	9
180.3850000000000	0	n/a	108232	KeyDown	41324	2	Ring	9
180.6583333333333	0	n/a	108396	KeyDown	41324	4	Index	9
181.2250000000000	0	n/a	108736	KeyDown	41324	4	Index	9
181.4883333333333	0	n/a	108894	KeyDown	41324	1	Little	9
181.8566666666667	0	n/a	109115	KeyDown	41324	3	Middle	9
182.1116666666667	0	n/a	109268	KeyDown	41324	2	Ring	9
182.4150000000000	0	n/a	109450	KeyDown	41324	4	Index	9
183.0066666666667	0	n/a	109805	KeyDown	41324	4	Index	9
183.2416666666667	0	n/a	109946	KeyDown	41324	1	Little	9
183.6600000000000	0	n/a	110197	KeyDown	41324	3	Middle	9
183.9716666666667	0	n/a	110384	KeyDown	41324	2	Ring	9
184.2416666666667	0	n/a	110546	KeyDown	41324	4	Index	9
184.8416666666667	0	n/a	110906	KeyDown	41324	4	Index	9
185.1016666666667	0	n/a	111062	KeyDown	41324	1	Little	9
185.1966666666667	0	n/a	111119	StopPractice	41324	n/a	n/a	9
185.1983333333334	0	n/a	111120	StartRest	XXXXX	n/a	n/a	9
195.2333333333333	0	n/a	117141	StopRest	XXXXX	n/a	n/a	9
195.2350000000000	0	UPPT001	117142	StartPractice	41324	n/a	n/a	10
195.6616666666667	0	n/a	117398	KeyDown	41324	4	Index	10
195.9650000000000	0	n/a	117580	KeyDown	41324	1	Little	10
196.3250000000000	0	n/a	117796	KeyDown	41324	3	Middle	10
196.5900000000000	0	n/a	117955	KeyDown	41324	2	Ring	10
196.8566666666667	0	n/a	118115	KeyDown	41324	4	Index	10
197.4216666666667	0	n/a	118454	KeyDown	41324	4	Index	10
197.7116666666667	0	n/a	118628	KeyDown	41324	1	Little	10
198.0066666666667	0	n/a	118805	KeyDown	41324	3	Middle	10
198.2766666666667	0	n/a	118967	KeyDown	41324	2	Ring	10
198.5266666666667	0	n/a	119117	KeyDown	41324	4	Index	10
199.1716666666667	0	n/a	119504	KeyDown	41324	4	Index	10
199.4566666666667	0	n/a	119675	KeyDown	41324	1	Little	10
199.7983333333333	0	n/a	119880	KeyDown	41324	3	Middle	10
200.0966666666667	0	n/a	120059	KeyDown	41324	2	Ring	10
200.3733333333333	0	n/a	120225	KeyDown	41324	4	Index	10
200.9566666666667	0	n/a	120575	KeyDown	41324	4	Index	10
201.2533333333334	0	n/a	120753	KeyDown	41324	1	Little	10
201.6133333333333	0	n/a	120969	KeyDown	41324	3	Middle	10
201.8666666666667	0	n/a	121121	KeyDown	41324	2	Ring	10
202.1566666666667	0	n/a	121295	KeyDown	41324	4	Index	10
202.7366666666667	0	n/a	121643	KeyDown	41324	4	Index	10
203.0433333333334	0	n/a	121827	KeyDown	41324	1	Little	10
203.4183333333334	0	n/a	122052	KeyDown	41324	3	Middle	10
203.7166666666667	0	n/a	122231	KeyDown	41324	2	Ring	10
204.0000000000000	0	n/a	122401	KeyDown	41324	4	Index	10
204.5600000000000	0	n/a	122737	KeyDown	41324	4	Index	10
204.8333333333333	0	n/a	122901	KeyDown	41324	1	Little	10
205.1233333333333	0	n/a	123075	KeyDown	41324	3	Middle	10
205.2733333333333	0	n/a	123165	StopPractice	41324	n/a	n/a	10
205.2750000000000	0	n/a	123166	StartRest	XXXXX	n/a	n/a	10
215.3083333333333	0	n/a	129186	StopRest	XXXXX	n/a	n/a	10
215.3100000000000	0	UPPT001	129187	StartPractice	41324	n/a	n/a	11
215.9016666666667	0	n/a	129542	KeyDown	41324	4	Index	11
216.1416666666667	0	n/a	129686	KeyDown	41324	1	Little	11
216.4983333333333	0	n/a	129900	KeyDown	41324	3	Middle	11
216.7483333333333	0	n/a	130050	KeyDown	41324	2	Ring	11
217.0066666666667	0	n/a	130205	KeyDown	41324	4	Index	11
217.5400000000000	0	n/a	130525	KeyDown	41324	4	Index	11
217.7750000000000	0	n/a	130666	KeyDown	41324	1	Little	11
218.1316666666667	0	n/a	130880	KeyDown	41324	3	Middle	11
218.3950000000000	0	n/a	131038	KeyDown	41324	2	Ring	11
218.6533333333333	0	n/a	131193	KeyDown	41324	4	Index	11
219.1316666666667	0	n/a	131480	KeyDown	41324	4	Index	11
219.3833333333334	0	n/a	131631	KeyDown	41324	1	Little	11
219.7600000000000	0	n/a	131857	KeyDown	41324	3	Middle	11
220.0383333333334	0	n/a	132024	KeyDown	41324	2	Ring	11
220.3250000000000	0	n/a	132196	KeyDown	41324	4	Index	11
220.9266666666667	0	n/a	132557	KeyDown	41324	4	Index	11
221.1733333333333	0	n/a	132705	KeyDown	41324	1	Little	11
221.5533333333333	0	n/a	132933	KeyDown	41324	3	Middle	11
221.7750000000000	0	n/a	133066	KeyDown	41324	2	Ring	11
222.0600000000000	0	n/a	133237	KeyDown	41324	4	Index	11
222.6333333333334	0	n/a	133581	KeyDown	41324	4	Index	11
222.8866666666667	0	n/a	133733	KeyDown	41324	1	Little	11
223.4350000000000	0	n/a	134062	KeyDown	41324	3	Middle	11
223.7316666666667	0	n/a	134240	KeyDown	41324	2	Ring	11
223.9883333333333	0	n/a	134394	KeyDown	41324	4	Index	11
224.4466666666667	0	n/a	134669	KeyDown	41324	4	Index	11
224.7000000000000	0	n/a	134821	KeyDown	41324	1	Little	11
225.0350000000000	0	n/a	135022	KeyDown	41324	3	Middle	11
225.3483333333334	0	n/a	135210	StopPractice	41324	n/a	n/a	11
225.3500000000000	0	n/a	135211	StartRest	XXXXX	n/a	n/a	11
235.3816666666667	0	n/a	141230	StopRest	XXXXX	n/a	n/a	11
235.3833333333334	0	UPPT001	141231	StartPractice	41324	n/a	n/a	12
235.7966666666667	0	n/a	141479	KeyDown	41324	4	Index	12
236.1100000000000	0	n/a	141667	KeyDown	41324	1	Little	12
236.5066666666667	0	n/a	141905	KeyDown	41324	3	Middle	12
236.7766666666667	0	n/a	142067	KeyDown	41324	2	Ring	12
237.0316666666667	0	n/a	142220	KeyDown	41324	4	Index	12
237.5116666666667	0	n/a	142508	KeyDown	41324	4	Index	12
237.7666666666667	0	n/a	142661	KeyDown	41324	1	Little	12
238.0716666666667	0	n/a	142844	KeyDown	41324	3	Middle	12
238.3266666666667	0	n/a	142997	KeyDown	41324	2	Ring	12
238.5650000000000	0	n/a	143140	KeyDown	41324	4	Index	12
239.0450000000000	0	n/a	143428	KeyDown	41324	4	Index	12
239.2950000000000	0	n/a	143578	KeyDown	41324	1	Little	12
239.5933333333334	0	n/a	143757	KeyDown	41324	3	Middle	12
239.8733333333333	0	n/a	143925	KeyDown	41324	2	Ring	12
240.1566666666667	0	n/a	144095	KeyDown	41324	4	Index	12
240.7066666666667	0	n/a	144425	KeyDown	41324	4	Index	12
240.9466666666667	0	n/a	144569	KeyDown	41324	2	Ring	12
241.8950000000000	0	n/a	145138	KeyDown	41324	3	Middle	12
242.2500000000000	0	n/a	145351	KeyDown	41324	3	Middle	12
242.4466666666667	0	n/a	145469	KeyDown	41324	2	Ring	12
243.1450000000000	0	n/a	145888	KeyDown	41324	4	Index	12
243.4166666666667	0	n/a	146051	KeyDown	41324	1	Little	12
243.9966666666667	0	n/a	146399	KeyDown	41324	3	Middle	12
244.2750000000000	0	n/a	146566	KeyDown	41324	2	Ring	12
244.5166666666667	0	n/a	146711	KeyDown	41324	4	Index	12
244.9866666666667	0	n/a	146993	KeyDown	41324	4	Index	12
245.3983333333333	0	n/a	147240	KeyDown	41324	1	Little	12
245.4216666666667	0	n/a	147254	StopPractice	41324	n/a	n/a	12
245.4233333333333	0	n/a	147255	StartRest	XXXXX	n/a	n/a	12
255.4583333333333	0	n/a	153276	StopRest	XXXXX	n/a	n/a	12
255.4600000000000	0	UPPT001	153277	StartPractice	41324	n/a	n/a	13
255.9066666666667	0	n/a	153545	KeyDown	41324	4	Index	13
256.1750000000000	0	n/a	153706	KeyDown	41324	1	Little	13
256.4733333333334	0	n/a	153885	KeyDown	41324	3	Middle	13
256.7483333333333	0	n/a	154050	KeyDown	41324	2	Ring	13
257.0416666666667	0	n/a	154226	KeyDown	41324	4	Index	13
257.5766666666667	0	n/a	154547	KeyDown	41324	4	Index	13
257.8416666666667	0	n/a	154706	KeyDown	41324	1	Little	13
258.1383333333334	0	n/a	154884	KeyDown	41324	3	Middle	13
258.4616666666667	0	n/a	155078	KeyDown	41324	2	Ring	13
258.7300000000000	0	n/a	155239	KeyDown	41324	4	Index	13
259.2716666666667	0	n/a	155564	KeyDown	41324	4	Index	13
259.5333333333334	0	n/a	155721	KeyDown	41324	1	Little	13
259.9583333333334	0	n/a	155976	KeyDown	41324	3	Middle	13
260.2716666666667	0	n/a	156164	KeyDown	41324	2	Ring	13
260.6050000000000	0	n/a	156364	KeyDown	41324	4	Index	13
261.1800000000000	0	n/a	156709	KeyDown	41324	4	Index	13
261.4683333333334	0	n/a	156882	KeyDown	41324	1	Little	13
261.8833333333333	0	n/a	157131	KeyDown	41324	3	Middle	13
262.1700000000000	0	n/a	157303	KeyDown	41324	2	Ring	13
262.4466666666667	0	n/a	157469	KeyDown	41324	4	Index	13
263.0033333333333	0	n/a	157803	KeyDown	41324	4	Index	13
263.3183333333333	0	n/a	157992	KeyDown	41324	1	Little	13
263.7083333333334	0	n/a	158226	KeyDown	41324	2	Ring	13
264.4950000000000	0	n/a	158698	KeyDown	41324	3	Middle	13
264.7683333333334	0	n/a	158862	KeyDown	41324	4	Index	13
265.4683333333334	0	n/a	159282	KeyDown	41324	4	Index	13
265.4983333333333	0	n/a	159300	StopPractice	41324	n/a	n/a	13
265.5000000000000	0	n/a	159301	StartRest	XXXXX	n/a	n/a	13
275.5316666666667	0	n/a	165320	StopRest	XXXXX	n/a	n/a	13
275.5333333333334	0	UPPT001	165321	StartPractice	41324	n/a	n/a	14
275.9766666666667	0	n/a	165587	KeyDown	41324	4	Index	14
276.2566666666667	0	n/a	165755	KeyDown	41324	1	Little	14
276.5616666666667	0	n/a	165938	KeyDown	41324	3	Middle	14
276.8016666666667	0	n/a	166082	KeyDown	41324	2	Ring	14
277.1150000000000	0	n/a	166270	KeyDown	41324	4	Index	14
277.7266666666667	0	n/a	166637	KeyDown	41324	4	Index	14
277.9866666666667	0	n/a	166793	KeyDown	41324	1	Little	14
278.3850000000000	0	n/a	167032	KeyDown	41324	3	Middle	14
278.6200000000000	0	n/a	167173	KeyDown	41324	2	Ring	14
278.9016666666667	0	n/a	167342	KeyDown	41324	4	Index	14
279.4200000000000	0	n/a	167653	KeyDown	41324	4	Index	14
279.6766666666667	0	n/a	167807	KeyDown	41324	1	Little	14
280.0850000000000	0	n/a	168052	KeyDown	41324	3	Middle	14
280.3550000000000	0	n/a	168214	KeyDown	41324	2	Ring	14
280.6633333333334	0	n/a	168399	KeyDown	41324	4	Index	14
281.1266666666667	0	n/a	168677	KeyDown	41324	4	Index	14
281.3566666666667	0	n/a	168815	KeyDown	41324	1	Little	14
281.7050000000000	0	n/a	169024	KeyDown	41324	3	Middle	14
281.9666666666667	0	n/a	169181	KeyDown	41324	2	Ring	14
282.2583333333333	0	n/a	169356	KeyDown	41324	4	Index	14
282.7500000000000	0	n/a	169651	KeyDown	41324	4	Index	14
283.0566666666667	0	n/a	169835	KeyDown	41324	1	Little	14
283.4350000000000	0	n/a	170062	KeyDown	41324	3	Middle	14
283.6600000000000	0	n/a	170197	KeyDown	41324	2	Ring	14
283.9516666666667	0	n/a	170372	KeyDown	41324	4	Index	14
284.3566666666667	0	n/a	170615	KeyDown	41324	4	Index	14
284.6316666666667	0	n/a	170780	KeyDown	41324	1	Little	14
285.0483333333333	0	n/a	171030	KeyDown	41324	3	Middle	14
285.3300000000000	0	n/a	171199	KeyDown	41324	2	Ring	14
285.5716666666667	0	n/a	171344	StopPractice	41324	n/a	n/a	14
285.5733333333333	0	n/a	171345	StartRest	XXXXX	n/a	n/a	14
295.6066666666667	0	n/a	177365	StopRest	XXXXX	n/a	n/a	14
295.6083333333333	0	UPPT001	177366	StartPractice	41324	n/a	n/a	15
296.2600000000000	0	n/a	177757	KeyDown	41324	4	Index	15
296.5483333333333	0	n/a	177930	KeyDown	41324	1	Little	15
296.8250000000000	0	n/a	178096	KeyDown	41324	3	Middle	15
297.1600000000000	0	n/a	178297	KeyDown	41324	2	Ring	15
297.5916666666667	0	n/a	178556	KeyDown	41324	4	Index	15
298.1600000000000	0	n/a	178897	KeyDown	41324	4	Index	15
298.4266666666667	0	n/a	179057	KeyDown	41324	1	Little	15
298.8050000000000	0	n/a	179284	KeyDown	41324	3	Middle	15
299.0000000000000	0	n/a	179401	KeyDown	41324	2	Ring	15
299.2666666666667	0	n/a	179561	KeyDown	41324	4	Index	15
299.7800000000000	0	n/a	179869	KeyDown	41324	4	Index	15
300.0316666666667	0	n/a	180020	KeyDown	41324	1	Little	15
300.3150000000000	0	n/a	180190	KeyDown	41324	4	Index	15
301.1116666666667	0	n/a	180668	KeyDown	41324	3	Middle	15
301.4933333333333	0	n/a	180897	KeyDown	41324	2	Ring	15
302.0416666666667	0	n/a	181226	KeyDown	41324	4	Index	15
302.2916666666667	0	n/a	181376	KeyDown	41324	1	Little	15
302.6250000000000	0	n/a	181576	KeyDown	41324	3	Middle	15
302.9000000000000	0	n/a	181741	KeyDown	41324	2	Ring	15
303.2200000000000	0	n/a	181933	KeyDown	41324	4	Index	15
303.6366666666667	0	n/a	182183	KeyDown	41324	4	Index	15
303.8800000000000	0	n/a	182329	KeyDown	41324	1	Little	15
304.2083333333334	0	n/a	182526	KeyDown	41324	3	Middle	15
304.4316666666667	0	n/a	182660	KeyDown	41324	2	Ring	15
304.7150000000000	0	n/a	182830	KeyDown	41324	4	Index	15
305.2300000000000	0	n/a	183139	KeyDown	41324	4	Index	15
305.5066666666667	0	n/a	183305	KeyDown	41324	1	Little	15
305.6466666666667	0	n/a	183389	StopPractice	41324	n/a	n/a	15
305.6483333333334	0	n/a	183390	StartRest	XXXXX	n/a	n/a	15
315.6816666666667	0	n/a	189410	StopRest	XXXXX	n/a	n/a	15
315.6833333333333	0	UPPT001	189411	StartPractice	41324	n/a	n/a	16
316.1166666666667	0	n/a	189671	KeyDown	41324	4	Index	16
316.3533333333334	0	n/a	189813	KeyDown	41324	1	Little	16
316.7000000000000	0	n/a	190021	KeyDown	41324	3	Middle	16
316.9216666666667	0	n/a	190154	KeyDown	41324	2	Ring	16
317.1816666666667	0	n/a	190310	KeyDown	41324	4	Index	16
317.6866666666667	0	n/a	190613	KeyDown	41324	4	Index	16
317.9466666666667	0	n/a	190769	KeyDown	41324	1	Little	16
318.3233333333334	0	n/a	190995	KeyDown	41324	3	Middle	16
318.5616666666667	0	n/a	191138	KeyDown	41324	2	Ring	16
318.7900000000000	0	n/a	191275	KeyDown	41324	4	Index	16
319.6583333333334	0	n/a	191796	KeyDown	41324	4	Index	16
319.9416666666667	0	n/a	191966	KeyDown	41324	1	Little	16
320.3616666666667	0	n/a	192218	KeyDown	41324	2	Ring	16
321.5200000000000	0	n/a	192913	KeyDown	41324	2	Ring	16
321.8283333333334	0	n/a	193098	KeyDown	41324	4	Index	16
322.2816666666667	0	n/a	193370	KeyDown	41324	4	Index	16
322.5083333333333	0	n/a	193506	KeyDown	41324	1	Little	16
323.0400000000000	0	n/a	193825	KeyDown	41324	3	Middle	16
323.2700000000000	0	n/a	193963	KeyDown	41324	2	Ring	16
323.5733333333334	0	n/a	194145	KeyDown	41324	4	Index	16
324.2516666666667	0	n/a	194552	KeyDown	41324	4	Index	16
324.5033333333333	0	n/a	194703	KeyDown	41324	1	Little	16
324.8850000000000	0	n/a	194932	KeyDown	41324	3	Middle	16
325.1550000000000	0	n/a	195094	KeyDown	41324	2	Ring	16
325.4500000000000	0	n/a	195271	KeyDown	41324	4	Index	16
325.7216666666667	0	n/a	195434	StopPractice	41324	n/a	n/a	16
325.7233333333334	0	n/a	195435	StartRest	XXXXX	n/a	n/a	16
335.7566666666667	0	n/a	201455	StopRest	XXXXX	n/a	n/a	16
335.7583333333334	0	UPPT001	201456	StartPractice	41324	n/a	n/a	17
336.1800000000000	0	n/a	201709	KeyDown	41324	4	Index	17
336.4483333333334	0	n/a	201870	KeyDown	41324	1	Little	17
336.9500000000000	0	n/a	202171	KeyDown	41324	3	Middle	17
337.1600000000000	0	n/a	202297	KeyDown	41324	2	Ring	17
337.4100000000000	0	n/a	202447	KeyDown	41324	4	Index	17
337.9333333333333	0	n/a	202761	KeyDown	41324	4	Index	17
338.2116666666667	0	n/a	202928	KeyDown	41324	1	Little	17
338.5016666666667	0	n/a	203102	KeyDown	41324	3	Middle	17
338.7900000000000	0	n/a	203275	KeyDown	41324	2	Ring	17
339.0816666666667	0	n/a	203450	KeyDown	41324	4	Index	17
339.5250000000000	0	n/a	203716	KeyDown	41324	4	Index	17
339.7850000000000	0	n/a	203872	KeyDown	41324	1	Little	17
340.1200000000000	0	n/a	204073	KeyDown	41324	3	Middle	17
340.3750000000000	0	n/a	204226	KeyDown	41324	2	Ring	17
340.6700000000000	0	n/a	204403	KeyDown	41324	4	Index	17
341.1250000000000	0	n/a	204676	KeyDown	41324	4	Index	17
341.3716666666667	0	n/a	204824	KeyDown	41324	1	Little	17
341.7500000000000	0	n/a	205051	KeyDown	41324	3	Middle	17
342.0233333333334	0	n/a	205215	KeyDown	41324	2	Ring	17
342.3316666666667	0	n/a	205400	KeyDown	41324	4	Index	17
342.8116666666667	0	n/a	205688	KeyDown	41324	4	Index	17
343.1116666666667	0	n/a	205868	KeyDown	41324	1	Little	17
343.4300000000000	0	n/a	206059	KeyDown	41324	3	Middle	17
343.8466666666667	0	n/a	206309	KeyDown	41324	2	Ring	17
344.1750000000000	0	n/a	206506	KeyDown	41324	4	Index	17
344.7016666666667	0	n/a	206822	KeyDown	41324	4	Index	17
344.9500000000000	0	n/a	206971	KeyDown	41324	1	Little	17
345.3466666666667	0	n/a	207209	KeyDown	41324	3	Middle	17
345.5900000000000	0	n/a	207355	KeyDown	41324	2	Ring	17
345.7966666666667	0	n/a	207479	StopPractice	41324	n/a	n/a	17
345.7983333333333	0	n/a	207480	StartRest	XXXXX	n/a	n/a	17
355.8316666666667	0	n/a	213500	StopRest	XXXXX	n/a	n/a	17
355.8333333333334	0	UPPT001	213501	StartPractice	41324	n/a	n/a	18
356.2866666666667	0	n/a	213773	KeyDown	41324	4	Index	18
356.5466666666667	0	n/a	213929	KeyDown	41324	1	Little	18
356.8200000000001	0	n/a	214093	KeyDown	41324	3	Middle	18
357.1716666666667	0	n/a	214304	KeyDown	41324	2	Ring	18
357.4416666666667	0	n/a	214466	KeyDown	41324	4	Index	18
358.0216666666667	0	n/a	214814	KeyDown	41324	4	Index	18
358.2633333333334	0	n/a	214959	KeyDown	41324	1	Little	18
358.5616666666667	0	n/a	215138	KeyDown	41324	3	Middle	18
358.8983333333334	0	n/a	215340	KeyDown	41324	2	Ring	18
359.5066666666667	0	n/a	215705	KeyDown	41324	4	Index	18
360.0616666666667	0	n/a	216038	KeyDown	41324	4	Index	18
360.3600000000000	0	n/a	216217	KeyDown	41324	1	Little	18
360.7216666666667	0	n/a	216434	KeyDown	41324	3	Middle	18
360.9516666666667	0	n/a	216572	KeyDown	41324	2	Ring	18
361.2566666666667	0	n/a	216755	KeyDown	41324	4	Index	18
361.8650000000000	0	n/a	217120	KeyDown	41324	4	Index	18
362.1200000000000	0	n/a	217273	KeyDown	41324	1	Little	18
362.4933333333333	0	n/a	217497	KeyDown	41324	3	Middle	18
362.7216666666667	0	n/a	217634	KeyDown	41324	2	Ring	18
362.9966666666667	0	n/a	217799	KeyDown	41324	4	Index	18
363.6400000000000	0	n/a	218185	KeyDown	41324	4	Index	18
363.8866666666667	0	n/a	218333	KeyDown	41324	1	Little	18
364.2466666666667	0	n/a	218549	KeyDown	41324	4	Index	18
364.9466666666667	0	n/a	218969	KeyDown	41324	3	Middle	18
365.2016666666667	0	n/a	219122	KeyDown	41324	2	Ring	18
365.4366666666667	0	n/a	219263	KeyDown	41324	4	Index	18
365.8716666666667	0	n/a	219524	StopPractice	41324	n/a	n/a	18
365.8733333333333	0	n/a	219525	StartRest	XXXXX	n/a	n/a	18
375.9066666666667	0	n/a	225545	StopRest	XXXXX	n/a	n/a	18
375.9083333333334	0	UPPT001	225546	StartPractice	41324	n/a	n/a	19
376.5016666666667	0	n/a	225902	KeyDown	41324	4	Index	19
376.7583333333334	0	n/a	226056	KeyDown	41324	1	Little	19
377.0400000000000	0	n/a	226225	KeyDown	41324	3	Middle	19
377.4200000000000	0	n/a	226453	KeyDown	41324	2	Ring	19
377.6950000000001	0	n/a	226618	KeyDown	41324	4	Index	19
378.2166666666667	0	n/a	226931	KeyDown	41324	4	Index	19
378.4916666666667	0	n/a	227096	KeyDown	41324	1	Little	19
378.8533333333334	0	n/a	227313	KeyDown	41324	3	Middle	19
379.1300000000001	0	n/a	227479	KeyDown	41324	2	Ring	19
379.4250000000000	0	n/a	227656	KeyDown	41324	4	Index	19
379.9300000000000	0	n/a	227959	KeyDown	41324	4	Index	19
380.1816666666667	0	n/a	228110	KeyDown	41324	1	Little	19
380.4966666666667	0	n/a	228299	KeyDown	41324	3	Middle	19
380.8166666666667	0	n/a	228491	KeyDown	41324	2	Ring	19
381.1616666666667	0	n/a	228698	KeyDown	41324	4	Index	19
381.7083333333334	0	n/a	229026	KeyDown	41324	4	Index	19
381.9716666666667	0	n/a	229184	KeyDown	41324	1	Little	19
382.3316666666667	0	n/a	229400	KeyDown	41324	3	Middle	19
382.6166666666667	0	n/a	229571	KeyDown	41324	2	Ring	19
382.9816666666667	0	n/a	229790	KeyDown	41324	4	Index	19
383.5350000000000	0	n/a	230122	KeyDown	41324	4	Index	19
383.7733333333334	0	n/a	230265	KeyDown	41324	1	Little	19
384.2466666666667	0	n/a	230549	KeyDown	41324	3	Middle	19
384.5216666666667	0	n/a	230714	KeyDown	41324	2	Ring	19
384.8166666666667	0	n/a	230891	KeyDown	41324	4	Index	19
385.3033333333333	0	n/a	231183	KeyDown	41324	4	Index	19
385.5733333333334	0	n/a	231345	KeyDown	41324	1	Little	19
385.9466666666667	0	n/a	231569	StopPractice	41324	n/a	n/a	19
385.9483333333334	0	n/a	231570	StartRest	XXXXX	n/a	n/a	19
395.9816666666667	0	n/a	237590	StopRest	XXXXX	n/a	n/a	19
395.9833333333333	0	UPPT001	237591	StartPractice	41324	n/a	n/a	20
396.5416666666667	0	n/a	237926	KeyDown	41324	4	Index	20
396.8116666666667	0	n/a	238088	KeyDown	41324	1	Little	20
397.0866666666667	0	n/a	238253	KeyDown	41324	3	Middle	20
397.4000000000000	0	n/a	238441	KeyDown	41324	2	Ring	20
397.7050000000000	0	n/a	238624	KeyDown	41324	4	Index	20
398.2666666666667	0	n/a	238961	KeyDown	41324	4	Index	20
398.4733333333334	0	n/a	239085	KeyDown	41324	1	Little	20
398.7850000000000	0	n/a	239272	KeyDown	41324	3	Middle	20
399.0350000000000	0	n/a	239422	KeyDown	41324	2	Ring	20
399.3066666666667	0	n/a	239585	KeyDown	41324	4	Index	20
399.8683333333333	0	n/a	239922	KeyDown	41324	4	Index	20
400.1566666666667	0	n/a	240095	KeyDown	41324	1	Little	20
400.4700000000000	0	n/a	240283	KeyDown	41324	3	Middle	20
400.8866666666667	0	n/a	240533	KeyDown	41324	2	Ring	20
401.1600000000000	0	n/a	240697	KeyDown	41324	4	Index	20
401.7316666666667	0	n/a	241040	KeyDown	41324	4	Index	20
401.9766666666667	0	n/a	241187	KeyDown	41324	1	Little	20
402.2850000000000	0	n/a	241372	KeyDown	41324	3	Middle	20
402.5100000000000	0	n/a	241507	KeyDown	41324	2	Ring	20
402.8250000000000	0	n/a	241696	KeyDown	41324	1	Little	20
403.3516666666667	0	n/a	242012	KeyDown	41324	4	Index	20
403.8833333333334	0	n/a	242331	KeyDown	41324	4	Index	20
404.0816666666667	0	n/a	242450	KeyDown	41324	1	Little	20
404.5650000000000	0	n/a	242740	KeyDown	41324	3	Middle	20
404.7900000000000	0	n/a	242875	KeyDown	41324	2	Ring	20
405.0816666666667	0	n/a	243050	KeyDown	41324	4	Index	20
405.6650000000000	0	n/a	243400	KeyDown	41324	4	Index	20
405.8783333333334	0	n/a	243528	KeyDown	41324	1	Little	20
406.0216666666667	0	n/a	243614	StopPractice	41324	n/a	n/a	20
406.0233333333334	0	n/a	243615	StartRest	XXXXX	n/a	n/a	20
416.0566666666667	0	n/a	249635	StopRest	XXXXX	n/a	n/a	20
416.0583333333333	0	UPPT001	249636	StartPractice	41324	n/a	n/a	21
416.5666666666667	0	n/a	249941	KeyDown	41324	4	Index	21
416.8483333333334	0	n/a	250110	KeyDown	41324	1	Little	21
417.1766666666667	0	n/a	250307	KeyDown	41324	3	Middle	21
417.3716666666667	0	n/a	250424	KeyDown	41324	2	Ring	21
417.6500000000000	0	n/a	250591	KeyDown	41324	4	Index	21
418.1466666666667	0	n/a	250889	KeyDown	41324	4	Index	21
418.4116666666667	0	n/a	251048	KeyDown	41324	1	Little	21
418.7316666666667	0	n/a	251240	KeyDown	41324	3	Middle	21
418.9566666666667	0	n/a	251375	KeyDown	41324	2	Ring	21
419.2033333333334	0	n/a	251523	KeyDown	41324	4	Index	21
419.6900000000001	0	n/a	251815	KeyDown	41324	4	Index	21
419.9150000000000	0	n/a	251950	KeyDown	41324	1	Little	21
420.2416666666667	0	n/a	252146	KeyDown	41324	3	Middle	21
420.4950000000000	0	n/a	252298	KeyDown	41324	2	Ring	21
420.7583333333334	0	n/a	252456	KeyDown	41324	4	Index	21
421.2133333333334	0	n/a	252729	KeyDown	41324	4	Index	21
421.4366666666667	0	n/a	252863	KeyDown	41324	1	Little	21
421.8216666666667	0	n/a	253094	KeyDown	41324	3	Middle	21
422.0166666666667	0	n/a	253211	KeyDown	41324	2	Ring	21
422.2850000000000	0	n/a	253372	KeyDown	41324	4	Index	21
422.7466666666667	0	n/a	253649	KeyDown	41324	4	Index	21
422.9666666666667	0	n/a	253781	KeyDown	41324	1	Little	21
423.3316666666667	0	n/a	254000	KeyDown	41324	3	Middle	21
423.6233333333333	0	n/a	254175	KeyDown	41324	2	Ring	21
423.8733333333333	0	n/a	254325	KeyDown	41324	4	Index	21
424.3550000000000	0	n/a	254614	KeyDown	41324	4	Index	21
424.6033333333334	0	n/a	254763	KeyDown	41324	1	Little	21
424.9850000000000	0	n/a	254992	KeyDown	41324	3	Middle	21
425.2350000000000	0	n/a	255142	KeyDown	41324	2	Ring	21
425.4900000000000	0	n/a	255295	KeyDown	41324	4	Index	21
426.0966666666667	0	n/a	255659	StopPractice	41324	n/a	n/a	21
426.0983333333334	0	n/a	255660	StartRest	XXXXX	n/a	n/a	21
436.1300000000001	0	n/a	261679	StopRest	XXXXX	n/a	n/a	21
436.1316666666667	0	UPPT001	261680	StartPractice	41324	n/a	n/a	22
436.7000000000000	0	n/a	262021	KeyDown	41324	4	Index	22
436.9550000000000	0	n/a	262174	KeyDown	41324	1	Little	22
437.2783333333334	0	n/a	262368	KeyDown	41324	3	Middle	22
437.5066666666667	0	n/a	262505	KeyDown	41324	2	Ring	22
437.7516666666667	0	n/a	262652	KeyDown	41324	4	Index	22
438.3050000000000	0	n/a	262984	KeyDown	41324	4	Index	22
438.5800000000000	0	n/a	263149	KeyDown	41324	1	Little	22
439.0450000000000	0	n/a	263428	KeyDown	41324	3	Middle	22
439.3550000000000	0	n/a	263614	KeyDown	41324	2	Ring	22
439.6683333333334	0	n/a	263802	KeyDown	41324	4	Index	22
440.2300000000000	0	n/a	264139	KeyDown	41324	4	Index	22
440.4700000000000	0	n/a	264283	KeyDown	41324	1	Little	22
440.8133333333334	0	n/a	264489	KeyDown	41324	3	Middle	22
441.0733333333334	0	n/a	264645	KeyDown	41324	2	Ring	22
441.3516666666667	0	n/a	264812	KeyDown	41324	4	Index	22
441.8083333333333	0	n/a	265086	KeyDown	41324	4	Index	22
442.0800000000000	0	n/a	265249	KeyDown	41324	1	Little	22
442.4650000000000	0	n/a	265480	KeyDown	41324	3	Middle	22
442.7183333333334	0	n/a	265632	KeyDown	41324	2	Ring	22
442.9833333333333	0	n/a	265791	KeyDown	41324	4	Index	22
443.4683333333334	0	n/a	266082	KeyDown	41324	4	Index	22
443.7600000000000	0	n/a	266257	KeyDown	41324	1	Little	22
444.0983333333334	0	n/a	266460	KeyDown	41324	3	Middle	22
444.4183333333334	0	n/a	266652	KeyDown	41324	2	Ring	22
444.6633333333334	0	n/a	266799	KeyDown	41324	4	Index	22
445.1233333333333	0	n/a	267075	KeyDown	41324	4	Index	22
445.4050000000000	0	n/a	267244	KeyDown	41324	1	Little	22
445.6666666666667	0	n/a	267401	KeyDown	41324	3	Middle	22
446.0033333333334	0	n/a	267603	KeyDown	41324	2	Ring	22
446.1700000000000	0	n/a	267703	StopPractice	41324	n/a	n/a	22
446.1716666666667	0	n/a	267704	StartRest	XXXXX	n/a	n/a	22
456.2066666666667	0	n/a	273725	StopRest	XXXXX	n/a	n/a	22
456.2083333333334	0	UPPT001	273726	StartPractice	41324	n/a	n/a	23
456.6250000000001	0	n/a	273976	KeyDown	41324	4	Index	23
456.8950000000000	0	n/a	274138	KeyDown	41324	1	Little	23
457.2050000000000	0	n/a	274324	KeyDown	41324	3	Middle	23
457.4433333333334	0	n/a	274467	KeyDown	41324	2	Ring	23
457.7083333333334	0	n/a	274626	KeyDown	41324	4	Index	23
458.2150000000000	0	n/a	274930	KeyDown	41324	4	Index	23
458.4566666666667	0	n/a	275075	KeyDown	41324	1	Little	23
458.8100000000000	0	n/a	275287	KeyDown	41324	3	Middle	23
459.0383333333334	0	n/a	275424	KeyDown	41324	2	Ring	23
459.3000000000000	0	n/a	275581	KeyDown	41324	4	Index	23
459.7333333333333	0	n/a	275841	KeyDown	41324	4	Index	23
459.9866666666667	0	n/a	275993	KeyDown	41324	1	Little	23
460.3916666666667	0	n/a	276236	KeyDown	41324	3	Middle	23
460.6633333333334	0	n/a	276399	KeyDown	41324	2	Ring	23
460.9266666666667	0	n/a	276557	KeyDown	41324	4	Index	23
461.4800000000000	0	n/a	276889	KeyDown	41324	4	Index	23
461.7166666666667	0	n/a	277031	KeyDown	41324	1	Little	23
462.0400000000000	0	n/a	277225	KeyDown	41324	3	Middle	23
462.2516666666667	0	n/a	277352	KeyDown	41324	2	Ring	23
462.4900000000000	0	n/a	277495	KeyDown	41324	4	Index	23
462.9950000000000	0	n/a	277798	KeyDown	41324	4	Index	23
463.2250000000000	0	n/a	277936	KeyDown	41324	1	Little	23
463.5150000000000	0	n/a	278110	KeyDown	41324	3	Middle	23
463.7816666666667	0	n/a	278270	KeyDown	41324	2	Ring	23
464.0350000000000	0	n/a	278422	KeyDown	41324	4	Index	23
464.5300000000000	0	n/a	278719	KeyDown	41324	4	Index	23
464.7700000000000	0	n/a	278863	KeyDown	41324	2	Ring	23
465.4683333333334	0	n/a	279282	KeyDown	41324	1	Little	23
466.0566666666667	0	n/a	279635	KeyDown	41324	3	Middle	23
466.2466666666667	0	n/a	279749	StopPractice	41324	n/a	n/a	23
466.2483333333333	0	n/a	279750	StartRest	XXXXX	n/a	n/a	23
476.2800000000000	0	n/a	285769	StopRest	XXXXX	n/a	n/a	23
476.2816666666667	0	UPPT001	285770	StartPractice	41324	n/a	n/a	24
477.6333333333334	0	n/a	286581	KeyDown	41324	4	Index	24
477.9450000000001	0	n/a	286768	KeyDown	41324	1	Little	24
478.2166666666667	0	n/a	286931	KeyDown	41324	3	Middle	24
478.4550000000000	0	n/a	287074	KeyDown	41324	2	Ring	24
478.7066666666667	0	n/a	287225	KeyDown	41324	4	Index	24
479.3816666666667	0	n/a	287630	KeyDown	41324	4	Index	24
479.6233333333334	0	n/a	287775	KeyDown	41324	1	Little	24
479.9516666666667	0	n/a	287972	KeyDown	41324	3	Middle	24
480.2083333333334	0	n/a	288126	KeyDown	41324	2	Ring	24
480.4750000000000	0	n/a	288286	KeyDown	41324	4	Index	24
481.0633333333334	0	n/a	288639	KeyDown	41324	4	Index	24
481.3500000000000	0	n/a	288811	KeyDown	41324	1	Little	24
481.7566666666667	0	n/a	289055	KeyDown	41324	3	Middle	24
482.0250000000000	0	n/a	289216	KeyDown	41324	2	Ring	24
482.3683333333333	0	n/a	289422	KeyDown	41324	4	Index	24
483.4333333333333	0	n/a	290061	KeyDown	41324	4	Index	24
483.6933333333334	0	n/a	290217	KeyDown	41324	1	Little	24
484.0650000000001	0	n/a	290440	KeyDown	41324	3	Middle	24
484.3100000000001	0	n/a	290587	KeyDown	41324	2	Ring	24
484.5800000000000	0	n/a	290749	KeyDown	41324	4	Index	24
485.2216666666667	0	n/a	291134	KeyDown	41324	4	Index	24
485.5283333333334	0	n/a	291318	KeyDown	41324	1	Little	24
485.9350000000001	0	n/a	291562	KeyDown	41324	3	Middle	24
486.2700000000000	0	n/a	291763	KeyDown	41324	2	Ring	24
486.3200000000001	0	n/a	291793	StopPractice	41324	n/a	n/a	24
486.3216666666667	0	n/a	291794	StartRest	XXXXX	n/a	n/a	24
496.3550000000000	0	n/a	297814	StopRest	XXXXX	n/a	n/a	24
496.3566666666667	0	UPPT001	297815	StartPractice	41324	n/a	n/a	25
496.8133333333334	0	n/a	298089	KeyDown	41324	4	Index	25
497.0616666666667	0	n/a	298238	KeyDown	41324	1	Little	25
497.3316666666667	0	n/a	298400	KeyDown	41324	3	Middle	25
497.5850000000000	0	n/a	298552	KeyDown	41324	2	Ring	25
497.8250000000000	0	n/a	298696	KeyDown	41324	4	Index	25
498.3600000000000	0	n/a	299017	KeyDown	41324	4	Index	25
498.6150000000000	0	n/a	299170	KeyDown	41324	1	Little	25
498.9233333333333	0	n/a	299355	KeyDown	41324	3	Middle	25
499.1433333333334	0	n/a	299487	KeyDown	41324	2	Ring	25
499.3933333333334	0	n/a	299637	KeyDown	41324	4	Index	25
499.9500000000000	0	n/a	299971	KeyDown	41324	4	Index	25
500.1983333333334	0	n/a	300120	KeyDown	41324	1	Little	25
500.5650000000001	0	n/a	300340	KeyDown	41324	4	Index	25
501.4733333333334	0	n/a	300885	KeyDown	41324	3	Middle	25
501.6983333333334	0	n/a	301020	KeyDown	41324	2	Ring	25
501.9950000000000	0	n/a	301198	KeyDown	41324	4	Index	25
502.5466666666667	0	n/a	301529	KeyDown	41324	4	Index	25
502.8033333333333	0	n/a	301683	KeyDown	41324	1	Little	25
503.1500000000000	0	n/a	301891	KeyDown	41324	3	Middle	25
503.3483333333334	0	n/a	302010	KeyDown	41324	2	Ring	25
503.6666666666667	0	n/a	302201	KeyDown	41324	4	Index	25
504.1950000000001	0	n/a	302518	KeyDown	41324	4	Index	25
504.4333333333334	0	n/a	302661	KeyDown	41324	1	Little	25
504.8900000000000	0	n/a	302935	KeyDown	41324	3	Middle	25
505.1466666666667	0	n/a	303089	KeyDown	41324	2	Ring	25
505.3516666666667	0	n/a	303212	KeyDown	41324	4	Index	25
506.2833333333334	0	n/a	303771	KeyDown	41324	4	Index	25
506.3950000000000	0	n/a	303838	StopPractice	41324	n/a	n/a	25
506.3966666666667	0	n/a	303839	StartRest	XXXXX	n/a	n/a	25
516.4300000000001	0	n/a	309859	StopRest	XXXXX	n/a	n/a	25
516.4316666666667	0	UPPT001	309860	StartPractice	41324	n/a	n/a	26
516.8600000000000	0	n/a	310117	KeyDown	41324	4	Index	26
517.1150000000000	0	n/a	310270	KeyDown	41324	1	Little	26
517.4000000000000	0	n/a	310441	KeyDown	41324	3	Middle	26
517.6750000000001	0	n/a	310606	KeyDown	41324	2	Ring	26
517.9600000000000	0	n/a	310777	KeyDown	41324	4	Index	26
518.4666666666667	0	n/a	311081	KeyDown	41324	4	Index	26
518.7216666666667	0	n/a	311234	KeyDown	41324	1	Little	26
519.0716666666667	0	n/a	311444	KeyDown	41324	3	Middle	26
519.3083333333334	0	n/a	311586	KeyDown	41324	2	Ring	26
519.6333333333333	0	n/a	311781	KeyDown	41324	4	Index	26
520.2733333333333	0	n/a	312165	KeyDown	41324	4	Index	26
520.5016666666667	0	n/a	312302	KeyDown	41324	1	Little	26
520.8350000000000	0	n/a	312502	KeyDown	41324	3	Middle	26
521.1133333333333	0	n/a	312669	KeyDown	41324	2	Ring	26
521.3883333333333	0	n/a	312834	KeyDown	41324	4	Index	26
521.9083333333334	0	n/a	313146	KeyDown	41324	4	Index	26
522.1883333333334	0	n/a	313314	KeyDown	41324	1	Little	26
522.4933333333333	0	n/a	313497	KeyDown	41324	3	Middle	26
522.7500000000000	0	n/a	313651	KeyDown	41324	2	Ring	26
523.0433333333334	0	n/a	313827	KeyDown	41324	4	Index	26
523.5700000000001	0	n/a	314143	KeyDown	41324	4	Index	26
523.7900000000001	0	n/a	314275	KeyDown	41324	1	Little	26
524.1633333333334	0	n/a	314499	KeyDown	41324	3	Middle	26
524.4783333333334	0	n/a	314688	KeyDown	41324	2	Ring	26
524.8016666666667	0	n/a	314882	KeyDown	41324	4	Index	26
525.6600000000001	0	n/a	315397	KeyDown	41324	4	Index	26
525.9283333333334	0	n/a	315558	KeyDown	41324	1	Little	26
526.3200000000001	0	n/a	315793	KeyDown	41324	3	Middle	26
526.4700000000000	0	n/a	315883	StopPractice	41324	n/a	n/a	26
526.4716666666667	0	n/a	315884	StartRest	XXXXX	n/a	n/a	26
536.5050000000000	0	n/a	321904	StopRest	XXXXX	n/a	n/a	26
536.5066666666667	0	UPPT001	321905	StartPractice	41324	n/a	n/a	27
536.8950000000000	0	n/a	322138	KeyDown	41324	4	Index	27
537.3150000000001	0	n/a	322390	KeyDown	41324	1	Little	27
537.5800000000000	0	n/a	322549	KeyDown	41324	3	Middle	27
537.8500000000000	0	n/a	322711	KeyDown	41324	2	Ring	27
538.1166666666667	0	n/a	322871	KeyDown	41324	4	Index	27
538.7666666666667	0	n/a	323261	KeyDown	41324	4	Index	27
539.0316666666668	0	n/a	323420	KeyDown	41324	1	Little	27
539.3983333333333	0	n/a	323640	KeyDown	41324	3	Middle	27
539.6300000000000	0	n/a	323779	KeyDown	41324	2	Ring	27
539.8983333333333	0	n/a	323940	KeyDown	41324	4	Index	27
540.5283333333334	0	n/a	324318	KeyDown	41324	4	Index	27
540.7800000000001	0	n/a	324469	KeyDown	41324	1	Little	27
541.0983333333334	0	n/a	324660	KeyDown	41324	3	Middle	27
541.4050000000001	0	n/a	324844	KeyDown	41324	2	Ring	27
541.6200000000000	0	n/a	324973	KeyDown	41324	4	Index	27
542.1900000000001	0	n/a	325315	KeyDown	41324	4	Index	27
542.4350000000001	0	n/a	325462	KeyDown	41324	1	Little	27
542.8400000000000	0	n/a	325705	KeyDown	41324	3	Middle	27
543.0833333333334	0	n/a	325851	KeyDown	41324	2	Ring	27
543.3550000000000	0	n/a	326014	KeyDown	41324	4	Index	27
543.8833333333333	0	n/a	326331	KeyDown	41324	4	Index	27
544.1633333333334	0	n/a	326499	KeyDown	41324	1	Little	27
544.5833333333334	0	n/a	326751	KeyDown	41324	3	Middle	27
544.8650000000000	0	n/a	326920	KeyDown	41324	2	Ring	27
545.1850000000001	0	n/a	327112	KeyDown	41324	4	Index	27
545.7700000000000	0	n/a	327463	KeyDown	41324	4	Index	27
546.0116666666667	0	n/a	327608	KeyDown	41324	1	Little	27
546.4350000000001	0	n/a	327862	KeyDown	41324	3	Middle	27
546.5450000000001	0	n/a	327928	StopPractice	41324	n/a	n/a	27
546.5466666666667	0	n/a	327929	StartRest	XXXXX	n/a	n/a	27
556.5800000000000	0	n/a	333949	StopRest	XXXXX	n/a	n/a	27
556.5816666666667	0	UPPT001	333950	StartPractice	41324	n/a	n/a	28
556.9116666666667	0	n/a	334148	KeyDown	41324	4	Index	28
557.1783333333334	0	n/a	334308	KeyDown	41324	1	Little	28
557.6333333333333	0	n/a	334581	KeyDown	41324	3	Middle	28
557.8783333333333	0	n/a	334728	KeyDown	41324	2	Ring	28
558.1566666666668	0	n/a	334895	KeyDown	41324	4	Index	28
558.6233333333333	0	n/a	335175	KeyDown	41324	4	Index	28
558.8800000000000	0	n/a	335329	KeyDown	41324	1	Little	28
559.1983333333334	0	n/a	335520	KeyDown	41324	3	Middle	28
559.4733333333334	0	n/a	335685	KeyDown	41324	2	Ring	28
559.7316666666667	0	n/a	335840	KeyDown	41324	4	Index	28
560.4533333333334	0	n/a	336273	KeyDown	41324	4	Index	28
560.7066666666667	0	n/a	336425	KeyDown	41324	1	Little	28
560.9933333333333	0	n/a	336597	KeyDown	41324	3	Middle	28
561.2483333333333	0	n/a	336750	KeyDown	41324	2	Ring	28
561.4816666666667	0	n/a	336890	KeyDown	41324	4	Index	28
561.9716666666667	0	n/a	337184	KeyDown	41324	4	Index	28
562.3650000000000	0	n/a	337420	KeyDown	41324	1	Little	28
562.7733333333334	0	n/a	337665	KeyDown	41324	3	Middle	28
562.9850000000000	0	n/a	337792	KeyDown	41324	2	Ring	28
563.3166666666667	0	n/a	337991	KeyDown	41324	4	Index	28
563.9133333333334	0	n/a	338349	KeyDown	41324	4	Index	28
564.1683333333334	0	n/a	338502	KeyDown	41324	1	Little	28
564.7983333333334	0	n/a	338880	KeyDown	41324	3	Middle	28
565.0783333333334	0	n/a	339048	KeyDown	41324	2	Ring	28
565.4016666666668	0	n/a	339242	KeyDown	41324	4	Index	28
566.2716666666666	0	n/a	339764	KeyDown	41324	4	Index	28
566.5283333333334	0	n/a	339918	KeyDown	41324	1	Little	28
566.6200000000000	0	n/a	339973	StopPractice	41324	n/a	n/a	28
566.6216666666667	0	n/a	339974	StartRest	XXXXX	n/a	n/a	28
576.6550000000001	0	n/a	345994	StopRest	XXXXX	n/a	n/a	28
576.6566666666668	0	UPPT001	345995	StartPractice	41324	n/a	n/a	29
577.0333333333334	0	n/a	346221	KeyDown	41324	4	Index	29
577.3033333333334	0	n/a	346383	KeyDown	41324	1	Little	29
577.5950000000000	0	n/a	346558	KeyDown	41324	3	Middle	29
577.8600000000000	0	n/a	346717	KeyDown	41324	2	Ring	29
578.1083333333333	0	n/a	346866	KeyDown	41324	4	Index	29
578.5700000000001	0	n/a	347143	KeyDown	41324	4	Index	29
578.8133333333334	0	n/a	347289	KeyDown	41324	1	Little	29
579.1983333333334	0	n/a	347520	KeyDown	41324	4	Index	29
579.2450000000000	0	n/a	347548	KeyDown	41324	3	Middle	29
579.5300000000001	0	n/a	347719	KeyDown	41324	3	Middle	29
579.5916666666667	0	n/a	347756	KeyDown	41324	2	Ring	29
580.0200000000000	0	n/a	348013	KeyDown	41324	4	Index	29
580.5200000000000	0	n/a	348313	KeyDown	41324	4	Index	29
580.7500000000000	0	n/a	348451	KeyDown	41324	1	Little	29
581.1683333333334	0	n/a	348702	KeyDown	41324	3	Middle	29
581.4733333333334	0	n/a	348885	KeyDown	41324	2	Ring	29
581.7033333333334	0	n/a	349023	KeyDown	41324	4	Index	29
582.1483333333334	0	n/a	349290	KeyDown	41324	4	Index	29
582.3750000000000	0	n/a	349426	KeyDown	41324	1	Little	29
582.7833333333334	0	n/a	349671	KeyDown	41324	3	Middle	29
583.1083333333333	0	n/a	349866	KeyDown	41324	2	Ring	29
583.4183333333334	0	n/a	350052	KeyDown	41324	4	Index	29
583.9400000000001	0	n/a	350365	KeyDown	41324	4	Index	29
584.2233333333334	0	n/a	350535	KeyDown	41324	1	Little	29
584.6233333333333	0	n/a	350775	KeyDown	41324	3	Middle	29
584.9150000000001	0	n/a	350950	KeyDown	41324	2	Ring	29
585.2033333333334	0	n/a	351123	KeyDown	41324	4	Index	29
586.0083333333333	0	n/a	351606	KeyDown	41324	4	Index	29
586.2950000000001	0	n/a	351778	KeyDown	41324	1	Little	29
586.6950000000001	0	n/a	352018	StopPractice	41324	n/a	n/a	29
586.6966666666667	0	n/a	352019	StartRest	XXXXX	n/a	n/a	29
596.7300000000000	0	n/a	358039	StopRest	XXXXX	n/a	n/a	29
596.7316666666667	0	UPPT001	358040	StartPractice	41324	n/a	n/a	30
597.1250000000000	0	n/a	358276	KeyDown	41324	4	Index	30
597.3533333333334	0	n/a	358413	KeyDown	41324	1	Little	30
597.6483333333334	0	n/a	358590	KeyDown	41324	3	Middle	30
597.9466666666667	0	n/a	358769	KeyDown	41324	2	Ring	30
598.2133333333334	0	n/a	358929	KeyDown	41324	4	Index	30
598.7050000000000	0	n/a	359224	KeyDown	41324	4	Index	30
598.9633333333334	0	n/a	359379	KeyDown	41324	1	Little	30
599.2583333333333	0	n/a	359556	KeyDown	41324	3	Middle	30
599.4700000000000	0	n/a	359683	KeyDown	41324	2	Ring	30
599.7533333333333	0	n/a	359853	KeyDown	41324	4	Index	30
600.4666666666667	0	n/a	360281	KeyDown	41324	4	Index	30
600.7300000000000	0	n/a	360439	KeyDown	41324	1	Little	30
601.1100000000000	0	n/a	360667	KeyDown	41324	3	Middle	30
601.3200000000001	0	n/a	360793	KeyDown	41324	2	Ring	30
601.5750000000000	0	n/a	360946	KeyDown	41324	4	Index	30
602.1650000000001	0	n/a	361300	KeyDown	41324	4	Index	30
602.4150000000001	0	n/a	361450	KeyDown	41324	1	Little	30
602.7233333333334	0	n/a	361635	KeyDown	41324	3	Middle	30
603.0250000000001	0	n/a	361816	KeyDown	41324	2	Ring	30
603.2633333333333	0	n/a	361959	KeyDown	41324	4	Index	30
603.8733333333333	0	n/a	362325	KeyDown	41324	4	Index	30
604.0650000000001	0	n/a	362440	KeyDown	41324	1	Little	30
604.4283333333334	0	n/a	362658	KeyDown	41324	3	Middle	30
604.8833333333333	0	n/a	362931	KeyDown	41324	2	Ring	30
605.2266666666667	0	n/a	363137	KeyDown	41324	4	Index	30
605.7700000000001	0	n/a	363463	KeyDown	41324	4	Index	30
606.0783333333334	0	n/a	363648	KeyDown	41324	2	Ring	30
606.7700000000001	0	n/a	364063	StopPractice	41324	n/a	n/a	30
606.7716666666668	0	n/a	364064	StartRest	XXXXX	n/a	n/a	30
616.8050000000001	0	n/a	370084	StopRest	XXXXX	n/a	n/a	30
616.8066666666667	0	UPPT001	370085	StartPractice	41324	n/a	n/a	31
617.3150000000001	0	n/a	370390	KeyDown	41324	4	Index	31
617.5916666666667	0	n/a	370556	KeyDown	41324	1	Little	31
617.8716666666667	0	n/a	370724	KeyDown	41324	3	Middle	31
618.1200000000000	0	n/a	370873	KeyDown	41324	2	Ring	31
618.3633333333333	0	n/a	371019	KeyDown	41324	4	Index	31
618.8683333333333	0	n/a	371322	KeyDown	41324	4	Index	31
619.1116666666667	0	n/a	371468	KeyDown	41324	1	Little	31
619.4583333333334	0	n/a	371676	KeyDown	41324	3	Middle	31
619.7383333333333	0	n/a	371844	KeyDown	41324	2	Ring	31
619.9933333333333	0	n/a	371997	KeyDown	41324	4	Index	31
620.5016666666667	0	n/a	372302	KeyDown	41324	4	Index	31
620.7850000000001	0	n/a	372472	KeyDown	41324	1	Little	31
621.1083333333333	0	n/a	372666	KeyDown	41324	3	Middle	31
621.3550000000000	0	n/a	372814	KeyDown	41324	2	Ring	31
621.7650000000000	0	n/a	373060	KeyDown	41324	4	Index	31
622.5250000000001	0	n/a	373516	KeyDown	41324	4	Index	31
622.7633333333333	0	n/a	373659	KeyDown	41324	1	Little	31
623.0700000000001	0	n/a	373843	KeyDown	41324	3	Middle	31
623.3550000000000	0	n/a	374014	KeyDown	41324	2	Ring	31
623.6350000000000	0	n/a	374182	KeyDown	41324	4	Index	31
624.2500000000000	0	n/a	374551	KeyDown	41324	4	Index	31
624.5133333333333	0	n/a	374709	KeyDown	41324	1	Little	31
625.0083333333333	0	n/a	375006	KeyDown	41324	3	Middle	31
625.2833333333334	0	n/a	375171	KeyDown	41324	2	Ring	31
625.6850000000001	0	n/a	375412	KeyDown	41324	4	Index	31
626.3633333333333	0	n/a	375819	KeyDown	41324	4	Index	31
626.6066666666667	0	n/a	375965	KeyDown	41324	1	Little	31
626.8450000000000	0	n/a	376108	StopPractice	41324	n/a	n/a	31
626.8466666666667	0	n/a	376109	StartRest	XXXXX	n/a	n/a	31
636.8783333333333	0	n/a	382128	StopRest	XXXXX	n/a	n/a	31
636.8800000000000	0	UPPT001	382129	StartPractice	41324	n/a	n/a	32
637.3933333333334	0	n/a	382437	KeyDown	41324	4	Index	32
637.6233333333333	0	n/a	382575	KeyDown	41324	1	Little	32
637.8850000000000	0	n/a	382732	KeyDown	41324	3	Middle	32
638.1783333333334	0	n/a	382908	KeyDown	41324	2	Ring	32
638.4333333333334	0	n/a	383061	KeyDown	41324	4	Index	32
638.9733333333334	0	n/a	383385	KeyDown	41324	4	Index	32
639.1816666666667	0	n/a	383510	KeyDown	41324	1	Little	32
639.4166666666667	0	n/a	383651	KeyDown	41324	3	Middle	32
639.7133333333334	0	n/a	383829	KeyDown	41324	2	Ring	32
639.9716666666667	0	n/a	383984	KeyDown	41324	4	Index	32
640.5683333333334	0	n/a	384342	KeyDown	41324	4	Index	32
640.7850000000001	0	n/a	384472	KeyDown	41324	1	Little	32
641.1583333333334	0	n/a	384696	KeyDown	41324	3	Middle	32
641.3866666666667	0	n/a	384833	KeyDown	41324	2	Ring	32
641.6950000000001	0	n/a	385018	KeyDown	41324	4	Index	32
642.1633333333334	0	n/a	385299	KeyDown	41324	4	Index	32
642.3650000000000	0	n/a	385420	KeyDown	41324	1	Little	32
642.6783333333334	0	n/a	385608	KeyDown	41324	3	Middle	32
643.0916666666667	0	n/a	385856	KeyDown	41324	3	Middle	32
643.1333333333333	0	n/a	385881	KeyDown	41324	2	Ring	32
643.9450000000001	0	n/a	386368	KeyDown	41324	4	Index	32
644.1683333333334	0	n/a	386502	KeyDown	41324	1	Little	32
644.6466666666668	0	n/a	386789	KeyDown	41324	3	Middle	32
644.8583333333333	0	n/a	386916	KeyDown	41324	2	Ring	32
645.0616666666667	0	n/a	387038	KeyDown	41324	4	Index	32
645.5766666666667	0	n/a	387347	KeyDown	41324	4	Index	32
645.8066666666667	0	n/a	387485	KeyDown	41324	1	Little	32
646.2433333333333	0	n/a	387747	KeyDown	41324	3	Middle	32
646.4333333333334	0	n/a	387861	KeyDown	41324	2	Ring	32
646.6666666666667	0	n/a	388001	KeyDown	41324	4	Index	32
646.9183333333334	0	n/a	388152	StopPractice	41324	n/a	n/a	32
646.9200000000001	0	n/a	388153	StartRest	XXXXX	n/a	n/a	32
656.9550000000000	0	n/a	394174	StopRest	XXXXX	n/a	n/a	32
656.9566666666667	0	UPPT001	394175	StartPractice	41324	n/a	n/a	33
657.3733333333333	0	n/a	394425	KeyDown	41324	4	Index	33
657.6200000000000	0	n/a	394573	KeyDown	41324	1	Little	33
657.8950000000001	0	n/a	394738	KeyDown	41324	3	Middle	33
658.1183333333333	0	n/a	394872	KeyDown	41324	2	Ring	33
658.3583333333333	0	n/a	395016	KeyDown	41324	4	Index	33
658.8783333333333	0	n/a	395328	KeyDown	41324	4	Index	33
659.1350000000000	0	n/a	395482	KeyDown	41324	1	Little	33
659.4350000000001	0	n/a	395662	KeyDown	41324	3	Middle	33
659.7250000000000	0	n/a	395836	KeyDown	41324	2	Ring	33
659.9783333333334	0	n/a	395988	KeyDown	41324	4	Index	33
660.5350000000001	0	n/a	396322	KeyDown	41324	4	Index	33
660.7833333333334	0	n/a	396471	KeyDown	41324	1	Little	33
661.0700000000001	0	n/a	396643	KeyDown	41324	3	Middle	33
661.3500000000000	0	n/a	396811	KeyDown	41324	2	Ring	33
661.5883333333334	0	n/a	396954	KeyDown	41324	4	Index	33
662.0750000000000	0	n/a	397246	KeyDown	41324	4	Index	33
662.3183333333334	0	n/a	397392	KeyDown	41324	1	Little	33
662.6400000000000	0	n/a	397585	KeyDown	41324	3	Middle	33
663.1833333333334	0	n/a	397911	KeyDown	41324	2	Ring	33
663.6000000000000	0	n/a	398161	KeyDown	41324	4	Index	33
664.0533333333334	0	n/a	398433	KeyDown	41324	4	Index	33
664.2800000000001	0	n/a	398569	KeyDown	41324	1	Little	33
664.6633333333334	0	n/a	398799	KeyDown	41324	3	Middle	33
664.8983333333334	0	n/a	398940	KeyDown	41324	2	Ring	33
665.1300000000000	0	n/a	399079	KeyDown	41324	4	Index	33
665.5783333333334	0	n/a	399348	KeyDown	41324	4	Index	33
665.7800000000001	0	n/a	399469	KeyDown	41324	1	Little	33
666.0700000000001	0	n/a	399643	KeyDown	41324	3	Middle	33
666.3100000000001	0	n/a	399787	KeyDown	41324	2	Ring	33
666.5200000000001	0	n/a	399913	KeyDown	41324	4	Index	33
666.9950000000000	0	n/a	400198	StopPractice	41324	n/a	n/a	33
666.9966666666667	0	n/a	400199	StartRest	XXXXX	n/a	n/a	33
677.0283333333334	0	n/a	406218	StopRest	XXXXX	n/a	n/a	33
677.0300000000001	0	UPPT001	406219	StartPractice	41324	n/a	n/a	34
677.5666666666667	0	n/a	406541	KeyDown	41324	4	Index	34
677.7866666666667	0	n/a	406673	KeyDown	41324	1	Little	34
678.0616666666667	0	n/a	406838	KeyDown	41324	3	Middle	34
678.3133333333334	0	n/a	406989	KeyDown	41324	2	Ring	34
678.5450000000001	0	n/a	407128	KeyDown	41324	4	Index	34
679.0783333333334	0	n/a	407448	KeyDown	41324	4	Index	34
679.3066666666667	0	n/a	407585	KeyDown	41324	1	Little	34
679.6166666666667	0	n/a	407771	KeyDown	41324	3	Middle	34
679.8166666666667	0	n/a	407891	KeyDown	41324	2	Ring	34
680.0700000000001	0	n/a	408043	KeyDown	41324	4	Index	34
680.6933333333334	0	n/a	408417	KeyDown	41324	4	Index	34
680.8850000000000	0	n/a	408532	KeyDown	41324	1	Little	34
681.2250000000000	0	n/a	408736	KeyDown	41324	3	Middle	34
681.4800000000000	0	n/a	408889	KeyDown	41324	2	Ring	34
681.7316666666667	0	n/a	409040	KeyDown	41324	4	Index	34
682.2716666666668	0	n/a	409364	KeyDown	41324	4	Index	34
682.5283333333334	0	n/a	409518	KeyDown	41324	1	Little	34
682.8516666666667	0	n/a	409712	KeyDown	41324	3	Middle	34
683.1033333333334	0	n/a	409863	KeyDown	41324	2	Ring	34
683.3366666666667	0	n/a	410003	KeyDown	41324	4	Index	34
683.8150000000001	0	n/a	410290	KeyDown	41324	4	Index	34
684.0466666666667	0	n/a	410429	KeyDown	41324	1	Little	34
684.3683333333333	0	n/a	410622	KeyDown	41324	4	Index	34
685.1250000000000	0	n/a	411076	KeyDown	41324	3	Middle	34
685.4716666666667	0	n/a	411284	KeyDown	41324	2	Ring	34
685.7133333333334	0	n/a	411429	KeyDown	41324	4	Index	34
686.1566666666668	0	n/a	411695	KeyDown	41324	4	Index	34
686.3816666666667	0	n/a	411830	KeyDown	41324	1	Little	34
686.8050000000001	0	n/a	412084	KeyDown	41324	3	Middle	34
687.0116666666667	0	n/a	412208	KeyDown	41324	2	Ring	34
687.0683333333334	0	n/a	412242	StopPractice	41324	n/a	n/a	34
687.0700000000001	0	n/a	412243	StartRest	XXXXX	n/a	n/a	34
697.1033333333334	0	n/a	418263	StopRest	XXXXX	n/a	n/a	34
697.1050000000000	0	UPPT001	418264	StartPractice	41324	n/a	n/a	35
697.5933333333334	0	n/a	418557	KeyDown	41324	4	Index	35
697.8233333333334	0	n/a	418695	KeyDown	41324	1	Little	35
698.0966666666667	0	n/a	418859	KeyDown	41324	3	Middle	35
698.3416666666667	0	n/a	419006	KeyDown	41324	2	Ring	35
698.5766666666667	0	n/a	419147	KeyDown	41324	4	Index	35
699.0783333333334	0	n/a	419448	KeyDown	41324	4	Index	35
699.3133333333334	0	n/a	419589	KeyDown	41324	1	Little	35
699.6300000000000	0	n/a	419779	KeyDown	41324	3	Middle	35
699.8783333333333	0	n/a	419928	KeyDown	41324	2	Ring	35
700.1283333333333	0	n/a	420078	KeyDown	41324	4	Index	35
700.5966666666667	0	n/a	420359	KeyDown	41324	4	Index	35
700.8433333333334	0	n/a	420507	KeyDown	41324	1	Little	35
701.1500000000001	0	n/a	420691	KeyDown	41324	3	Middle	35
701.4083333333334	0	n/a	420846	KeyDown	41324	2	Ring	35
701.6583333333334	0	n/a	420996	KeyDown	41324	4	Index	35
702.1650000000001	0	n/a	421300	KeyDown	41324	4	Index	35
702.3966666666668	0	n/a	421439	KeyDown	41324	1	Little	35
702.7150000000000	0	n/a	421630	KeyDown	41324	3	Middle	35
702.9883333333333	0	n/a	421794	KeyDown	41324	2	Ring	35
703.2716666666668	0	n/a	421964	KeyDown	41324	4	Index	35
703.7533333333333	0	n/a	422253	KeyDown	41324	4	Index	35
704.0183333333334	0	n/a	422412	KeyDown	41324	2	Ring	35
704.5783333333334	0	n/a	422748	KeyDown	41324	1	Little	35
704.9900000000000	0	n/a	422995	KeyDown	41324	3	Middle	35
705.2133333333334	0	n/a	423129	KeyDown	41324	2	Ring	35
705.5483333333334	0	n/a	423330	KeyDown	41324	4	Index	35
706.0000000000000	0	n/a	423601	KeyDown	41324	4	Index	35
706.2116666666667	0	n/a	423728	KeyDown	41324	1	Little	35
706.7383333333333	0	n/a	424044	KeyDown	41324	3	Middle	35
707.0616666666667	0	n/a	424238	KeyDown	41324	2	Ring	35
707.1433333333334	0	n/a	424287	StopPractice	41324	n/a	n/a	35
707.1450000000001	0	n/a	424288	StartRest	XXXXX	n/a	n/a	35
717.1783333333334	0	n/a	430308	StopRest	XXXXX	n/a	n/a	35
717.1800000000001	0	UPPT001	430309	StartPractice	41324	n/a	n/a	36
717.5883333333334	0	n/a	430554	KeyDown	41324	4	Index	36
717.7850000000001	0	n/a	430672	KeyDown	41324	1	Little	36
718.0800000000000	0	n/a	430849	KeyDown	41324	3	Middle	36
718.4316666666667	0	n/a	431060	KeyDown	41324	2	Ring	36
718.7116666666667	0	n/a	431228	KeyDown	41324	4	Index	36
719.2783333333334	0	n/a	431568	KeyDown	41324	4	Index	36
719.5000000000000	0	n/a	431701	KeyDown	41324	1	Little	36
719.7866666666667	0	n/a	431873	KeyDown	41324	3	Middle	36
720.0483333333334	0	n/a	432030	KeyDown	41324	2	Ring	36
720.2816666666668	0	n/a	432170	KeyDown	41324	4	Index	36
720.8616666666667	0	n/a	432518	KeyDown	41324	4	Index	36
721.0983333333334	0	n/a	432660	KeyDown	41324	1	Little	36
721.4083333333334	0	n/a	432846	KeyDown	41324	3	Middle	36
721.7016666666667	0	n/a	433022	KeyDown	41324	2	Ring	36
721.9833333333333	0	n/a	433191	KeyDown	41324	4	Index	36
722.6766666666667	0	n/a	433607	KeyDown	41324	4	Index	36
722.9866666666667	0	n/a	433793	KeyDown	41324	1	Little	36
723.2650000000001	0	n/a	433960	KeyDown	41324	3	Middle	36
723.5166666666668	0	n/a	434111	KeyDown	41324	2	Ring	36
723.8066666666667	0	n/a	434285	KeyDown	41324	4	Index	36
724.4566666666667	0	n/a	434675	KeyDown	41324	4	Index	36
724.6933333333334	0	n/a	434817	KeyDown	41324	1	Little	36
725.0933333333334	0	n/a	435057	KeyDown	41324	3	Middle	36
725.3633333333333	0	n/a	435219	KeyDown	41324	2	Ring	36
725.6316666666667	0	n/a	435380	KeyDown	41324	4	Index	36
726.1016666666667	0	n/a	435662	KeyDown	41324	4	Index	36
726.3250000000000	0	n/a	435796	KeyDown	41324	1	Little	36
726.8466666666667	0	n/a	436109	KeyDown	41324	3	Middle	36
727.0733333333334	0	n/a	436245	KeyDown	41324	2	Ring	36
727.2183333333334	0	n/a	436332	StopPractice	41324	n/a	n/a	36
727.2200000000000	0	n/a	436333	StartRest	XXXXX	n/a	n/a	36
737.2550000000000	0	n/a	442354	StopRest	XXXXX	n/a	n/a	36
