onset	duration	channel	onset_sample_idx	event_type	target_sequence	keypress_id	finger_label	trial_number
39.2083333333333	0	UPPT001	23526	StartPractice	41324	n/a	n/a	1
44.9216666666667	0	n/a	26954	KeyDown	41324	4	Index	1
45.5466666666667	0	n/a	27329	KeyDown	41324	1	Little	1
46.2450000000000	0	n/a	27748	KeyDown	41324	3	Middle	1
47.1650000000000	0	n/a	28300	KeyDown	41324	4	Index	1
49.2550000000000	0	n/a	29554	StopPractice	41324	n/a	n/a	1
49.2566666666667	0	n/a	29555	StartRest	XXXXX	n/a	n/a	1
59.2700000000000	0	n/a	35563	StopRest	XXXXX	n/a	n/a	1
59.2716666666667	0	UPPT001	35564	StartPractice	41324	n/a	n/a	2
68.2050000000000	0	n/a	40924	KeyDown	41324	4	Index	2
69.1183333333333	0	n/a	41472	KeyDown	41324	1	Little	2
69.3183333333333	0	n/a	41592	StopPractice	41324	n/a	n/a	2
69.3200000000000	0	n/a	41593	StartRest	XXXXX	n/a	n/a	2
79.3433333333333	0	n/a	47607	StopRest	XXXXX	n/a	n/a	2
79.3450000000000	0	UPPT001	47608	StartPractice	41324	n/a	n/a	3
80.2250000000000	0	n/a	48136	KeyDown	41324	4	Index	3
80.5766666666667	0	n/a	48347	KeyDown	41324	1	Little	3
80.9450000000000	0	n/a	48568	KeyDown	41324	3	Middle	3
81.2483333333333	0	n/a	48750	KeyDown	41324	2	Ring	3
81.5366666666667	0	n/a	48923	KeyDown	41324	4	Index	3
83.6333333333333	0	n/a	50181	KeyDown	41324	4	Index	3
83.8666666666667	0	n/a	50321	KeyDown	41324	1	Little	3
84.1600000000000	0	n/a	50497	KeyDown	41324	3	Middle	3
84.5766666666667	0	n/a	50747	KeyDown	41324	2	Ring	3
84.8866666666667	0	n/a	50933	KeyDown	41324	4	Index	3
85.6766666666667	0	n/a	51407	KeyDown	41324	4	Index	3
86.0050000000000	0	n/a	51604	KeyDown	41324	1	Little	3
86.2850000000000	0	n/a	51772	KeyDown	41324	3	Middle	3
86.5583333333333	0	n/a	51936	KeyDown	41324	2	Ring	3
86.8583333333333	0	n/a	52116	KeyDown	41324	4	Index	3
87.4000000000000	0	n/a	52441	KeyDown	41324	4	Index	3
87.6366666666667	0	n/a	52583	KeyDown	41324	1	Little	3
87.8966666666667	0	n/a	52739	KeyDown	41324	3	Middle	3
88.1233333333333	0	n/a	52875	KeyDown	41324	2	Ring	3
88.3916666666667	0	n/a	53036	KeyDown	41324	4	Index	3
88.9333333333333	0	n/a	53361	KeyDown	41324	4	Index	3
89.1616666666667	0	n/a	53498	KeyDown	41324	1	Little	3
89.3916666666667	0	n/a	53636	StopPractice	41324	n/a	n/a	3
89.3933333333333	0	n/a	53637	StartRest	XXXXX	n/a	n/a	3
99.4200000000000	0	n/a	59653	StopRest	XXXXX	n/a	n/a	3
99.4216666666667	0	UPPT001	59654	StartPractice	41324	n/a	n/a	4
100.1383333333333	0	n/a	60084	KeyDown	41324	4	Index	4
100.4016666666667	0	n/a	60242	KeyDown	41324	1	Little	4
100.7116666666667	0	n/a	60428	KeyDown	41324	3	Middle	4
100.9350000000000	0	n/a	60562	KeyDown	41324	2	Ring	4
101.1833333333333	0	n/a	60711	KeyDown	41324	4	Index	4
101.7450000000000	0	n/a	61048	KeyDown	41324	4	Index	4
101.9566666666667	0	n/a	61175	KeyDown	41324	1	Little	4
102.2083333333333	0	n/a	61326	KeyDown	41324	3	Middle	4
102.4200000000000	0	n/a	61453	KeyDown	41324	2	Ring	4
102.6533333333333	0	n/a	61593	KeyDown	41324	4	Index	4
103.3000000000000	0	n/a	61981	KeyDown	41324	4	Index	4
103.5666666666667	0	n/a	62141	KeyDown	41324	1	Little	4
103.8350000000000	0	n/a	62302	KeyDown	41324	3	Middle	4
104.0683333333333	0	n/a	62442	KeyDown	41324	2	Ring	4
104.3383333333333	0	n/a	62604	KeyDown	41324	4	Index	4
105.2283333333333	0	n/a	63138	KeyDown	41324	4	Index	4
105.4966666666667	0	n/a	63299	KeyDown	41324	1	Little	4
105.8050000000000	0	n/a	63484	KeyDown	41324	3	Middle	4
106.1050000000000	0	n/a	63664	KeyDown	41324	2	Ring	4
106.3883333333333	0	n/a	63834	KeyDown	41324	4	Index	4
106.8950000000000	0	n/a	64138	KeyDown	41324	4	Index	4
107.1216666666667	0	n/a	64274	KeyDown	41324	1	Little	4
107.3900000000000	0	n/a	64435	KeyDown	41324	3	Middle	4
107.5966666666667	0	n/a	64559	KeyDown	41324	2	Ring	4
107.8183333333333	0	n/a	64692	KeyDown	41324	4	Index	4
108.2833333333333	0	n/a	64971	KeyDown	41324	4	Index	4
108.4816666666667	0	n/a	65090	KeyDown	41324	1	Little	4
108.7150000000000	0	n/a	65230	KeyDown	41324	3	Middle	4
108.9083333333333	0	n/a	65346	KeyDown	41324	2	Ring	4
109.1666666666667	0	n/a	65501	KeyDown	41324	4	Index	4
109.4683333333333	0	n/a	65682	StopPractice	41324	n/a	n/a	4
109.4700000000000	0	n/a	65683	StartRest	XXXXX	n/a	n/a	4
119.4933333333333	0	n/a	71697	StopRest	XXXXX	n/a	n/a	4
119.4950000000000	0	UPPT001	71698	StartPractice	41324	n/a	n/a	5
120.1150000000000	0	n/a	72070	KeyDown	41324	4	Index	5
120.3183333333333	0	n/a	72192	KeyDown	41324	1	Little	5
120.6516666666667	0	n/a	72392	KeyDown	41324	3	Middle	5
120.8633333333333	0	n/a	72519	KeyDown	41324	2	Ring	5
121.0816666666667	0	n/a	72650	KeyDown	41324	4	Index	5
121.5216666666667	0	n/a	72914	KeyDown	41324	4	Index	5
121.6900000000000	0	n/a	73015	KeyDown	41324	1	Little	5
121.9333333333333	0	n/a	73161	KeyDown	41324	3	Middle	5
122.1166666666667	0	n/a	73271	KeyDown	41324	2	Ring	5
122.3266666666667	0	n/a	73397	KeyDown	41324	4	Index	5
122.7283333333333	0	n/a	73638	KeyDown	41324	4	Index	5
122.8966666666667	0	n/a	73739	KeyDown	41324	1	Little	5
123.1783333333333	0	n/a	73908	KeyDown	41324	3	Middle	5
123.4016666666667	0	n/a	74042	KeyDown	41324	2	Ring	5
123.7200000000000	0	n/a	74233	KeyDown	41324	4	Index	5
124.0683333333333	0	n/a	74442	KeyDown	41324	4	Index	5
124.2516666666667	0	n/a	74552	KeyDown	41324	1	Little	5
124.5283333333333	0	n/a	74718	KeyDown	41324	3	Middle	5
124.7066666666667	0	n/a	74825	KeyDown	41324	2	Ring	5
124.9483333333333	0	n/a	74970	KeyDown	41324	4	Index	5
125.2816666666667	0	n/a	75170	KeyDown	41324	4	Index	5
125.4566666666667	0	n/a	75275	KeyDown	41324	1	Little	5
125.6883333333333	0	n/a	75414	KeyDown	41324	3	Middle	5
125.8550000000000	0	n/a	75514	KeyDown	41324	2	Ring	5
126.1266666666667	0	n/a	75677	KeyDown	41324	4	Index	5
126.4066666666667	0	n/a	75845	KeyDown	41324	4	Index	5
126.5916666666667	0	n/a	75956	KeyDown	41324	1	Little	5
126.8816666666667	0	n/a	76130	KeyDown	41324	3	Middle	5
127.0733333333333	0	n/a	76245	KeyDown	41324	2	Ring	5
127.2683333333333	0	n/a	76362	KeyDown	41324	4	Index	5
127.5183333333333	0	n/a	76512	KeyDown	41324	4	Index	5
127.6933333333333	0	n/a	76617	KeyDown	41324	1	Little	5
127.9466666666667	0	n/a	76769	KeyDown	41324	3	Middle	5
128.1283333333333	0	n/a	76878	KeyDown	41324	2	Ring	5
128.3433333333333	0	n/a	77007	KeyDown	41324	4	Index	5
128.5566666666667	0	n/a	77135	KeyDown	41324	4	Index	5
128.7133333333333	0	n/a	77229	KeyDown	41324	1	Little	5
128.9200000000000	0	n/a	77353	KeyDown	41324	3	Middle	5
129.0966666666667	0	n/a	77459	KeyDown	41324	2	Ring	5
129.2816666666667	0	n/a	77570	KeyDown	41324	4	Index	5
129.5150000000000	0	n/a	77710	KeyDown	41324	4	Index	5
129.5416666666667	0	n/a	77726	StopPractice	41324	n/a	n/a	5
129.5433333333334	0	n/a	77727	StartRest	XXXXX	n/a	n/a	5
139.5683333333334	0	n/a	83742	StopRest	XXXXX	n/a	n/a	5
139.5700000000000	0	UPPT001	83743	StartPractice	41324	n/a	n/a	6
140.1400000000000	0	n/a	84085	KeyDown	41324	4	Index	6
140.3300000000000	0	n/a	84199	KeyDown	41324	1	Little	6
140.5566666666667	0	n/a	84335	KeyDown	41324	3	Middle	6
140.7233333333333	0	n/a	84435	KeyDown	41324	2	Ring	6
140.9216666666667	0	n/a	84554	KeyDown	41324	4	Index	6
141.2183333333333	0	n/a	84732	KeyDown	41324	4	Index	6
141.3983333333333	0	n/a	84840	KeyDown	41324	1	Little	6
141.6033333333334	0	n/a	84963	KeyDown	41324	3	Middle	6
141.7900000000000	0	n/a	85075	KeyDown	41324	2	Ring	6
141.9500000000000	0	n/a	85171	KeyDown	41324	4	Index	6
142.2016666666667	0	n/a	85322	KeyDown	41324	4	Index	6
142.3683333333333	0	n/a	85422	KeyDown	41324	1	Little	6
142.6716666666667	0	n/a	85604	KeyDown	41324	3	Middle	6
142.8483333333333	0	n/a	85710	KeyDown	41324	2	Ring	6
143.0366666666667	0	n/a	85823	KeyDown	41324	4	Index	6
143.2333333333333	0	n/a	85941	KeyDown	41324	4	Index	6
143.3800000000000	0	n/a	86029	KeyDown	41324	1	Little	6
143.5933333333333	0	n/a	86157	KeyDown	41324	3	Middle	6
143.7516666666667	0	n/a	86252	KeyDown	41324	2	Ring	6
143.9216666666667	0	n/a	86354	KeyDown	41324	4	Index	6
144.1416666666667	0	n/a	86486	KeyDown	41324	4	Index	6
144.2916666666667	0	n/a	86576	KeyDown	41324	1	Little	6
144.8866666666667	0	n/a	86933	KeyDown	41324	3	Middle	6
145.0816666666667	0	n/a	87050	KeyDown	41324	2	Ring	6
145.2383333333333	0	n/a	87144	KeyDown	41324	4	Index	6
145.4366666666667	0	n/a	87263	KeyDown	41324	4	Index	6
145.5816666666667	0	n/a	87350	KeyDown	41324	1	Little	6
145.7750000000000	0	n/a	87466	KeyDown	41324	3	Middle	6
145.9316666666667	0	n/a	87560	KeyDown	41324	2	Ring	6
146.0733333333334	0	n/a	87645	KeyDown	41324	4	Index	6
146.2683333333333	0	n/a	87762	KeyDown	41324	4	Index	6
146.4083333333333	0	n/a	87846	KeyDown	41324	1	Little	6
146.6116666666667	0	n/a	87968	KeyDown	41324	3	Middle	6
146.7416666666667	0	n/a	88046	KeyDown	41324	2	Ring	6
146.9016666666667	0	n/a	88142	KeyDown	41324	4	Index	6
147.0983333333333	0	n/a	88260	KeyDown	41324	4	Index	6
147.2316666666667	0	n/a	88340	KeyDown	41324	1	Little	6
147.4333333333333	0	n/a	88461	KeyDown	41324	3	Middle	6
147.5616666666667	0	n/a	88538	KeyDown	41324	2	Ring	6
147.7533333333333	0	n/a	88653	KeyDown	41324	4	Index	6
147.9466666666667	0	n/a	88769	KeyDown	41324	4	Index	6
148.0883333333333	0	n/a	88854	KeyDown	41324	1	Little	6
148.2766666666667	0	n/a	88967	KeyDown	41324	3	Middle	6
148.4266666666667	0	n/a	89057	KeyDown	41324	2	Ring	6
148.5766666666667	0	n/a	89147	KeyDown	41324	4	Index	6
148.7800000000000	0	n/a	89269	KeyDown	41324	4	Index	6
148.9033333333333	0	n/a	89343	KeyDown	41324	1	Little	6
149.0816666666667	0	n/a	89450	KeyDown	41324	3	Middle	6
149.2216666666667	0	n/a	89534	KeyDown	41324	2	Ring	6
149.3666666666667	0	n/a	89621	KeyDown	41324	4	Index	6
149.5816666666667	0	n/a	89750	KeyDown	41324	4	Index	6
149.6166666666667	0	n/a	89771	StopPractice	41324	n/a	n/a	6
149.6183333333333	0	n/a	89772	StartRest	XXXXX	n/a	n/a	6
159.6433333333333	0	n/a	95787	StopRest	XXXXX	n/a	n/a	6
159.6450000000000	0	UPPT001	95788	StartPractice	41324	n/a	n/a	7
160.2316666666667	0	n/a	96140	KeyDown	41324	4	Index	7
160.4033333333333	0	n/a	96243	KeyDown	41324	1	Little	7
160.5850000000000	0	n/a	96352	KeyDown	41324	3	Middle	7
160.7516666666667	0	n/a	96452	KeyDown	41324	2	Ring	7
160.9116666666667	0	n/a	96548	KeyDown	41324	4	Index	7
161.1200000000000	0	n/a	96673	KeyDown	41324	4	Index	7
161.2516666666667	0	n/a	96752	KeyDown	41324	1	Little	7
161.4183333333334	0	n/a	96852	KeyDown	41324	3	Middle	7
161.5850000000000	0	n/a	96952	KeyDown	41324	2	Ring	7
161.7566666666667	0	n/a	97055	KeyDown	41324	4	Index	7
161.9666666666667	0	n/a	97181	KeyDown	41324	4	Index	7
162.2783333333333	0	n/a	97368	KeyDown	41324	1	Little	7
162.4916666666667	0	n/a	97496	KeyDown	41324	3	Middle	7
162.6433333333333	0	n/a	97587	KeyDown	41324	2	Ring	7
162.7933333333334	0	n/a	97677	KeyDown	41324	4	Index	7
162.9916666666667	0	n/a	97796	KeyDown	41324	4	Index	7
163.1333333333334	0	n/a	97881	KeyDown	41324	1	Little	7
163.2933333333334	0	n/a	97977	KeyDown	41324	3	Middle	7
163.4466666666667	0	n/a	98069	KeyDown	41324	2	Ring	7
163.5950000000000	0	n/a	98158	KeyDown	41324	4	Index	7
163.7916666666667	0	n/a	98276	KeyDown	41324	4	Index	7
163.9383333333333	0	n/a	98364	KeyDown	41324	1	Little	7
164.0933333333333	0	n/a	98457	KeyDown	41324	3	Middle	7
164.2433333333333	0	n/a	98547	KeyDown	41324	2	Ring	7
164.3933333333333	0	n/a	98637	KeyDown	41324	4	Index	7
164.6000000000000	0	n/a	98761	KeyDown	41324	4	Index	7
164.7316666666667	0	n/a	98840	KeyDown	41324	1	Little	7
164.9000000000000	0	n/a	98941	KeyDown	41324	3	Middle	7
165.0433333333334	0	n/a	99027	KeyDown	41324	2	Ring	7
165.1866666666667	0	n/a	99113	KeyDown	41324	4	Index	7
165.3950000000000	0	n/a	99238	KeyDown	41324	4	Index	7
165.5366666666667	0	n/a	99323	KeyDown	41324	1	Little	7
165.6983333333334	0	n/a	99420	KeyDown	41324	3	Middle	7
165.8383333333333	0	n/a	99504	KeyDown	41324	2	Ring	7
165.9933333333333	0	n/a	99597	KeyDown	41324	4	Index	7
166.2066666666667	0	n/a	99725	KeyDown	41324	4	Index	7
166.3383333333333	0	n/a	99804	KeyDown	41324	1	Little	7
166.5033333333333	0	n/a	99903	KeyDown	41324	3	Middle	7
166.6483333333333	0	n/a	99990	KeyDown	41324	2	Ring	7
166.7700000000000	0	n/a	100063	KeyDown	41324	4	Index	7
166.9800000000000	0	n/a	100189	KeyDown	41324	4	Index	7
167.1250000000000	0	n/a	100276	KeyDown	41324	1	Little	7
167.2800000000000	0	n/a	100369	KeyDown	41324	3	Middle	7
167.4266666666667	0	n/a	100457	KeyDown	41324	2	Ring	7
167.5566666666667	0	n/a	100535	KeyDown	41324	4	Index	7
167.7500000000000	0	n/a	100651	KeyDown	41324	4	Index	7
167.8666666666667	0	n/a	100721	KeyDown	41324	1	Little	7
168.0200000000000	0	n/a	100813	KeyDown	41324	3	Middle	7
168.1600000000000	0	n/a	100897	KeyDown	41324	2	Ring	7
168.3016666666667	0	n/a	100982	KeyDown	41324	4	Index	7
168.4983333333333	0	n/a	101100	KeyDown	41324	4	Index	7
168.6333333333334	0	n/a	101181	KeyDown	41324	1	Little	7
168.8033333333333	0	n/a	101283	KeyDown	41324	3	Middle	7
168.9266666666667	0	n/a	101357	KeyDown	41324	2	Ring	7
169.0666666666667	0	n/a	101441	KeyDown	41324	4	Index	7
169.2850000000000	0	n/a	101572	KeyDown	41324	4	Index	7
169.4133333333334	0	n/a	101649	KeyDown	41324	1	Little	7
169.5466666666667	0	n/a	101729	KeyDown	41324	3	Middle	7
169.6916666666667	0	n/a	101816	StopPractice	41324	n/a	n/a	7
169.6933333333334	0	n/a	101817	StartRest	XXXXX	n/a	n/a	7
179.7350000000000	0	n/a	107842	StopRest	XXXXX	n/a	n/a	7
179.7366666666667	0	UPPT001	107843	StartPractice	41324	n/a	n/a	8
180.3500000000000	0	n/a	108211	KeyDown	41324	4	Index	8
180.5183333333333	0	n/a	108312	KeyDown	41324	1	Little	8
180.7033333333333	0	n/a	108423	KeyDown	41324	3	Middle	8
180.8533333333334	0	n/a	108513	KeyDown	41324	2	Ring	8
180.9783333333334	0	n/a	108588	KeyDown	41324	4	Index	8
181.1633333333334	0	n/a	108699	KeyDown	41324	4	Index	8
181.3166666666667	0	n/a	108791	KeyDown	41324	1	Little	8
181.6300000000000	0	n/a	108979	KeyDown	41324	3	Middle	8
181.8100000000000	0	n/a	109087	KeyDown	41324	2	Ring	8
181.9450000000000	0	n/a	109168	KeyDown	41324	4	Index	8
182.1316666666667	0	n/a	109280	KeyDown	41324	4	Index	8
182.2400000000000	0	n/a	109345	KeyDown	41324	1	Little	8
182.3983333333333	0	n/a	109440	KeyDown	41324	3	Middle	8
182.5250000000000	0	n/a	109516	KeyDown	41324	2	Ring	8
182.6566666666667	0	n/a	109595	KeyDown	41324	4	Index	8
182.8583333333333	0	n/a	109716	KeyDown	41324	4	Index	8
182.9700000000000	0	n/a	109783	KeyDown	41324	1	Little	8
183.1316666666667	0	n/a	109880	KeyDown	41324	3	Middle	8
183.2633333333333	0	n/a	109959	KeyDown	41324	2	Ring	8
183.4100000000000	0	n/a	110047	KeyDown	41324	4	Index	8
183.6166666666667	0	n/a	110171	KeyDown	41324	4	Index	8
183.7433333333333	0	n/a	110247	KeyDown	41324	1	Little	8
183.9516666666667	0	n/a	110372	KeyDown	41324	3	Middle	8
184.0633333333333	0	n/a	110439	KeyDown	41324	2	Ring	8
184.1900000000000	0	n/a	110515	KeyDown	41324	4	Index	8
184.3900000000000	0	n/a	110635	KeyDown	41324	4	Index	8
184.5250000000000	0	n/a	110716	KeyDown	41324	1	Little	8
184.6900000000000	0	n/a	110815	KeyDown	41324	3	Middle	8
184.7983333333333	0	n/a	110880	KeyDown	41324	2	Ring	8
184.9533333333333	0	n/a	110973	KeyDown	41324	4	Index	8
185.1600000000000	0	n/a	111097	KeyDown	41324	4	Index	8
185.2883333333334	0	n/a	111174	KeyDown	41324	1	Little	8
185.5033333333334	0	n/a	111303	KeyDown	41324	3	Middle	8
185.8300000000000	0	n/a	111499	KeyDown	41324	2	Ring	8
185.9433333333334	0	n/a	111567	KeyDown	41324	2	Ring	8
186.1483333333333	0	n/a	111690	KeyDown	41324	4	Index	8
186.4050000000000	0	n/a	111844	KeyDown	41324	4	Index	8
186.5500000000000	0	n/a	111931	KeyDown	41324	1	Little	8
186.7566666666667	0	n/a	112055	KeyDown	41324	3	Middle	8
186.8783333333334	0	n/a	112128	KeyDown	41324	2	Ring	8
187.0333333333333	0	n/a	112221	KeyDown	41324	4	Index	8
187.2316666666667	0	n/a	112340	KeyDown	41324	4	Index	8
187.3583333333333	0	n/a	112416	KeyDown	41324	1	Little	8
187.5700000000000	0	n/a	112543	KeyDown	41324	3	Middle	8
187.6900000000000	0	n/a	112615	KeyDown	41324	2	Ring	8
187.8450000000000	0	n/a	112708	KeyDown	41324	4	Index	8
188.0900000000000	0	n/a	112855	KeyDown	41324	4	Index	8
188.2916666666667	0	n/a	112976	KeyDown	41324	1	Little	8
188.5000000000000	0	n/a	113101	KeyDown	41324	3	Middle	8
188.6200000000000	0	n/a	113173	KeyDown	41324	2	Ring	8
188.7800000000000	0	n/a	113269	KeyDown	41324	4	Index	8
188.9816666666667	0	n/a	113390	KeyDown	41324	4	Index	8
189.1133333333333	0	n/a	113469	KeyDown	41324	1	Little	8
189.2833333333333	0	n/a	113571	KeyDown	41324	3	Middle	8
189.3933333333333	0	n/a	113637	KeyDown	41324	2	Ring	8
189.5883333333333	0	n/a	113754	KeyDown	41324	4	Index	8
189.7833333333333	0	n/a	113871	StopPractice	41324	n/a	n/a	8
189.7850000000000	0	n/a	113872	StartRest	XXXXX	n/a	n/a	8
199.8266666666667	0	n/a	119897	StopRest	XXXXX	n/a	n/a	8
199.8283333333333	0	UPPT001	119898	StartPractice	41324	n/a	n/a	9
200.2366666666667	0	n/a	120143	KeyDown	41324	4	Index	9
200.3766666666667	0	n/a	120227	KeyDown	41324	1	Little	9
200.5450000000000	0	n/a	120328	KeyDown	41324	3	Middle	9
200.6683333333334	0	n/a	120402	KeyDown	41324	2	Ring	9
200.8050000000000	0	n/a	120484	KeyDown	41324	4	Index	9
200.9866666666667	0	n/a	120593	KeyDown	41324	4	Index	9
201.1016666666667	0	n/a	120662	KeyDown	41324	1	Little	9
201.2366666666667	0	n/a	120743	KeyDown	41324	3	Middle	9
201.3700000000000	0	n/a	120823	KeyDown	41324	2	Ring	9
201.5183333333333	0	n/a	120912	KeyDown	41324	4	Index	9
201.7116666666667	0	n/a	121028	KeyDown	41324	4	Index	9
201.8300000000000	0	n/a	121099	KeyDown	41324	1	Little	9
201.9883333333333	0	n/a	121194	KeyDown	41324	3	Middle	9
202.1233333333333	0	n/a	121275	KeyDown	41324	2	Ring	9
202.3083333333333	0	n/a	121386	KeyDown	41324	4	Index	9
202.5016666666667	0	n/a	121502	KeyDown	41324	4	Index	9
202.6200000000000	0	n/a	121573	KeyDown	41324	1	Little	9
202.7933333333334	0	n/a	121677	KeyDown	41324	3	Middle	9
202.9200000000000	0	n/a	121753	KeyDown	41324	2	Ring	9
203.0766666666667	0	n/a	121847	KeyDown	41324	4	Index	9
203.2750000000000	0	n/a	121966	KeyDown	41324	4	Index	9
203.4083333333334	0	n/a	122046	KeyDown	41324	1	Little	9
203.5700000000000	0	n/a	122143	KeyDown	41324	3	Middle	9
203.6933333333334	0	n/a	122217	KeyDown	41324	2	Ring	9
203.8500000000000	0	n/a	122311	KeyDown	41324	4	Index	9
204.0566666666667	0	n/a	122435	KeyDown	41324	4	Index	9
204.1816666666667	0	n/a	122510	KeyDown	41324	1	Little	9
204.3600000000000	0	n/a	122617	KeyDown	41324	3	Middle	9
204.5250000000000	0	n/a	122716	KeyDown	41324	2	Ring	9
204.6816666666667	0	n/a	122810	KeyDown	41324	4	Index	9
204.8966666666667	0	n/a	122939	KeyDown	41324	4	Index	9
205.0133333333333	0	n/a	123009	KeyDown	41324	1	Little	9
205.1866666666667	0	n/a	123113	KeyDown	41324	3	Middle	9
205.3150000000000	0	n/a	123190	KeyDown	41324	2	Ring	9
205.5283333333333	0	n/a	123318	KeyDown	41324	4	Index	9
205.7516666666667	0	n/a	123452	KeyDown	41324	4	Index	9
205.9050000000000	0	n/a	123544	KeyDown	41324	1	Little	9
206.1516666666667	0	n/a	123692	KeyDown	41324	3	Middle	9
206.2833333333334	0	n/a	123771	KeyDown	41324	2	Ring	9
206.4083333333334	0	n/a	123846	KeyDown	41324	4	Index	9
206.6066666666667	0	n/a	123965	KeyDown	41324	4	Index	9
206.7266666666667	0	n/a	124037	KeyDown	41324	1	Little	9
206.9150000000000	0	n/a	124150	KeyDown	41324	3	Middle	9
207.0233333333333	0	n/a	124215	KeyDown	41324	2	Ring	9
207.1650000000000	0	n/a	124300	KeyDown	41324	4	Index	9
207.3516666666667	0	n/a	124412	KeyDown	41324	4	Index	9
207.4783333333334	0	n/a	124488	KeyDown	41324	1	Little	9
207.6483333333333	0	n/a	124590	KeyDown	41324	3	Middle	9
207.7816666666667	0	n/a	124670	KeyDown	41324	1	Little	9
208.2216666666667	0	n/a	124934	KeyDown	41324	3	Middle	9
208.5016666666667	0	n/a	125102	KeyDown	41324	4	Index	9
208.8016666666667	0	n/a	125282	KeyDown	41324	1	Little	9
209.0550000000000	0	n/a	125434	KeyDown	41324	3	Middle	9
209.2350000000000	0	n/a	125542	KeyDown	41324	2	Ring	9
209.3900000000000	0	n/a	125635	KeyDown	41324	4	Index	9
209.5716666666667	0	n/a	125744	KeyDown	41324	4	Index	9
209.6916666666667	0	n/a	125816	KeyDown	41324	1	Little	9
209.8750000000000	0	n/a	125926	StopPractice	41324	n/a	n/a	9
209.8766666666667	0	n/a	125927	StartRest	XXXXX	n/a	n/a	9
219.9183333333334	0	n/a	131952	StopRest	XXXXX	n/a	n/a	9
219.9200000000000	0	UPPT001	131953	StartPractice	41324	n/a	n/a	10
220.4583333333333	0	n/a	132276	KeyDown	41324	4	Index	10
220.5750000000000	0	n/a	132346	KeyDown	41324	1	Little	10
220.8000000000000	0	n/a	132481	KeyDown	41324	3	Middle	10
220.9400000000000	0	n/a	132565	KeyDown	41324	2	Ring	10
221.0816666666667	0	n/a	132650	KeyDown	41324	4	Index	10
221.3066666666667	0	n/a	132785	KeyDown	41324	4	Index	10
221.4300000000000	0	n/a	132859	KeyDown	41324	1	Little	10
221.6000000000000	0	n/a	132961	KeyDown	41324	3	Middle	10
221.7400000000000	0	n/a	133045	KeyDown	41324	2	Ring	10
221.8866666666667	0	n/a	133133	KeyDown	41324	4	Index	10
222.0883333333333	0	n/a	133254	KeyDown	41324	4	Index	10
222.2250000000000	0	n/a	133336	KeyDown	41324	1	Little	10
222.4083333333334	0	n/a	133446	KeyDown	41324	3	Middle	10
222.5283333333333	0	n/a	133518	KeyDown	41324	2	Ring	10
222.6800000000000	0	n/a	133609	KeyDown	41324	4	Index	10
222.8866666666667	0	n/a	133733	KeyDown	41324	4	Index	10
223.0200000000000	0	n/a	133813	KeyDown	41324	1	Little	10
223.2166666666667	0	n/a	133931	KeyDown	41324	3	Middle	10
223.3233333333334	0	n/a	133995	KeyDown	41324	2	Ring	10
223.4733333333334	0	n/a	134085	KeyDown	41324	4	Index	10
223.6883333333334	0	n/a	134214	KeyDown	41324	4	Index	10
223.8283333333333	0	n/a	134298	KeyDown	41324	1	Little	10
224.0016666666667	0	n/a	134402	KeyDown	41324	3	Middle	10
224.1066666666667	0	n/a	134465	KeyDown	41324	2	Ring	10
224.2616666666667	0	n/a	134558	KeyDown	41324	4	Index	10
224.4566666666667	0	n/a	134675	KeyDown	41324	4	Index	10
224.5966666666667	0	n/a	134759	KeyDown	41324	1	Little	10
224.7683333333333	0	n/a	134862	KeyDown	41324	3	Middle	10
224.8850000000000	0	n/a	134932	KeyDown	41324	2	Ring	10
225.0716666666667	0	n/a	135044	KeyDown	41324	4	Index	10
225.2833333333334	0	n/a	135171	KeyDown	41324	4	Index	10
225.4066666666667	0	n/a	135245	KeyDown	41324	1	Little	10
225.6116666666667	0	n/a	135368	KeyDown	41324	3	Middle	10
225.7366666666667	0	n/a	135443	KeyDown	41324	2	Ring	10
225.8833333333334	0	n/a	135531	KeyDown	41324	4	Index	10
226.0966666666667	0	n/a	135659	KeyDown	41324	4	Index	10
226.2466666666667	0	n/a	135749	KeyDown	41324	1	Little	10
226.4316666666667	0	n/a	135860	KeyDown	41324	3	Middle	10
226.5366666666667	0	n/a	135923	KeyDown	41324	2	Ring	10
226.6883333333334	0	n/a	136014	KeyDown	41324	4	Index	10
226.9033333333333	0	n/a	136143	KeyDown	41324	4	Index	10
227.0283333333333	0	n/a	136218	KeyDown	41324	1	Little	10
227.2300000000000	0	n/a	136339	KeyDown	41324	3	Middle	10
227.3400000000000	0	n/a	136405	KeyDown	41324	2	Ring	10
227.4916666666667	0	n/a	136496	KeyDown	41324	4	Index	10
227.7000000000000	0	n/a	136621	KeyDown	41324	4	Index	10
227.8333333333333	0	n/a	136701	KeyDown	41324	1	Little	10
228.0316666666667	0	n/a	136820	KeyDown	41324	3	Middle	10
228.1383333333333	0	n/a	136884	KeyDown	41324	2	Ring	10
228.2716666666667	0	n/a	136964	KeyDown	41324	4	Index	10
228.4816666666667	0	n/a	137090	KeyDown	41324	4	Index	10
228.6066666666667	0	n/a	137165	KeyDown	41324	1	Little	10
228.7916666666667	0	n/a	137276	KeyDown	41324	3	Middle	10
228.9116666666667	0	n/a	137348	KeyDown	41324	2	Ring	10
229.0783333333333	0	n/a	137448	KeyDown	41324	4	Index	10
229.2933333333334	0	n/a	137577	KeyDown	41324	4	Index	10
229.4183333333334	0	n/a	137652	KeyDown	41324	1	Little	10
229.6483333333333	0	n/a	137790	KeyDown	41324	3	Middle	10
229.7766666666667	0	n/a	137867	KeyDown	41324	2	Ring	10
229.9100000000000	0	n/a	137947	KeyDown	41324	4	Index	10
229.9666666666667	0	n/a	137981	StopPractice	41324	n/a	n/a	10
229.9683333333334	0	n/a	137982	StartRest	XXXXX	n/a	n/a	10
240.0100000000000	0	n/a	144007	StopRest	XXXXX	n/a	n/a	10
240.0116666666667	0	UPPT001	144008	StartPractice	41324	n/a	n/a	11
241.0066666666667	0	n/a	144605	KeyDown	41324	4	Index	11
241.1366666666667	0	n/a	144683	KeyDown	41324	1	Little	11
241.2983333333333	0	n/a	144780	KeyDown	41324	3	Middle	11
241.4333333333333	0	n/a	144861	KeyDown	41324	2	Ring	11
241.5816666666667	0	n/a	144950	KeyDown	41324	4	Index	11
241.7783333333333	0	n/a	145068	KeyDown	41324	4	Index	11
241.9050000000000	0	n/a	145144	KeyDown	41324	1	Little	11
242.0750000000000	0	n/a	145246	KeyDown	41324	3	Middle	11
242.1833333333333	0	n/a	145311	KeyDown	41324	2	Ring	11
242.3433333333334	0	n/a	145407	KeyDown	41324	4	Index	11
242.5433333333334	0	n/a	145527	KeyDown	41324	4	Index	11
242.6783333333333	0	n/a	145608	KeyDown	41324	1	Little	11
242.8433333333334	0	n/a	145707	KeyDown	41324	3	Middle	11
242.9616666666667	0	n/a	145778	KeyDown	41324	2	Ring	11
243.1100000000000	0	n/a	145867	KeyDown	41324	4	Index	11
243.3016666666667	0	n/a	145982	KeyDown	41324	4	Index	11
243.4333333333333	0	n/a	146061	KeyDown	41324	1	Little	11
243.6050000000000	0	n/a	146164	KeyDown	41324	3	Middle	11
243.7133333333333	0	n/a	146229	KeyDown	41324	2	Ring	11
243.8583333333333	0	n/a	146316	KeyDown	41324	4	Index	11
244.0500000000000	0	n/a	146431	KeyDown	41324	4	Index	11
244.1633333333334	0	n/a	146499	KeyDown	41324	1	Little	11
244.3700000000000	0	n/a	146623	KeyDown	41324	3	Middle	11
244.4883333333333	0	n/a	146694	KeyDown	41324	2	Ring	11
244.6483333333333	0	n/a	146790	KeyDown	41324	4	Index	11
244.8483333333334	0	n/a	146910	KeyDown	41324	4	Index	11
245.0650000000000	0	n/a	147040	KeyDown	41324	1	Little	11
245.3966666666667	0	n/a	147239	KeyDown	41324	3	Middle	11
245.5300000000000	0	n/a	147319	KeyDown	41324	2	Ring	11
245.6700000000000	0	n/a	147403	KeyDown	41324	4	Index	11
245.8800000000000	0	n/a	147529	KeyDown	41324	4	Index	11
246.0016666666667	0	n/a	147602	KeyDown	41324	1	Little	11
246.1950000000000	0	n/a	147718	KeyDown	41324	3	Middle	11
246.3133333333334	0	n/a	147789	KeyDown	41324	2	Ring	11
246.4533333333333	0	n/a	147873	KeyDown	41324	4	Index	11
246.6533333333333	0	n/a	147993	KeyDown	41324	4	Index	11
246.7783333333333	0	n/a	148068	KeyDown	41324	1	Little	11
246.9583333333333	0	n/a	148176	KeyDown	41324	3	Middle	11
247.0683333333334	0	n/a	148242	KeyDown	41324	2	Ring	11
247.2150000000000	0	n/a	148330	KeyDown	41324	4	Index	11
247.4133333333334	0	n/a	148449	KeyDown	41324	4	Index	11
247.5383333333334	0	n/a	148524	KeyDown	41324	1	Little	11
247.7833333333334	0	n/a	148671	KeyDown	41324	3	Middle	11
247.8900000000000	0	n/a	148735	KeyDown	41324	2	Ring	11
248.0333333333334	0	n/a	148821	KeyDown	41324	4	Index	11
248.2400000000000	0	n/a	148945	KeyDown	41324	4	Index	11
248.3700000000000	0	n/a	149023	KeyDown	41324	1	Little	11
248.5583333333333	0	n/a	149136	KeyDown	41324	3	Middle	11
248.6900000000000	0	n/a	149215	KeyDown	41324	2	Ring	11
248.8716666666667	0	n/a	149324	KeyDown	41324	4	Index	11
249.0933333333334	0	n/a	149457	KeyDown	41324	4	Index	11
249.2116666666667	0	n/a	149528	KeyDown	41324	1	Little	11
249.4233333333333	0	n/a	149655	KeyDown	41324	3	Middle	11
249.6150000000000	0	n/a	149770	KeyDown	41324	2	Ring	11
249.7633333333333	0	n/a	149859	KeyDown	41324	4	Index	11
249.9716666666667	0	n/a	149984	KeyDown	41324	4	Index	11
250.0583333333333	0	n/a	150036	StopPractice	41324	n/a	n/a	11
250.0600000000000	0	n/a	150037	StartRest	XXXXX	n/a	n/a	11
260.1000000000000	0	n/a	156061	StopRest	XXXXX	n/a	n/a	11
260.1016666666667	0	UPPT001	156062	StartPractice	41324	n/a	n/a	12
260.7666666666667	0	n/a	156461	KeyDown	41324	4	Index	12
260.8933333333334	0	n/a	156537	KeyDown	41324	1	Little	12
261.0783333333334	0	n/a	156648	KeyDown	41324	3	Middle	12
261.2050000000000	0	n/a	156724	KeyDown	41324	2	Ring	12
261.3300000000000	0	n/a	156799	KeyDown	41324	4	Index	12
261.5150000000000	0	n/a	156910	KeyDown	41324	4	Index	12
261.6416666666667	0	n/a	156986	KeyDown	41324	1	Little	12
261.7983333333333	0	n/a	157080	KeyDown	41324	3	Middle	12
261.9033333333334	0	n/a	157143	KeyDown	41324	2	Ring	12
262.0483333333333	0	n/a	157230	KeyDown	41324	4	Index	12
262.2400000000000	0	n/a	157345	KeyDown	41324	4	Index	12
262.3483333333334	0	n/a	157410	KeyDown	41324	1	Little	12
262.5333333333334	0	n/a	157521	KeyDown	41324	3	Middle	12
262.6483333333334	0	n/a	157590	KeyDown	41324	2	Ring	12
262.7916666666667	0	n/a	157676	KeyDown	41324	4	Index	12
262.9766666666667	0	n/a	157787	KeyDown	41324	4	Index	12
263.0900000000000	0	n/a	157855	KeyDown	41324	1	Little	12
263.2700000000000	0	n/a	157963	KeyDown	41324	3	Middle	12
263.3850000000000	0	n/a	158032	KeyDown	41324	2	Ring	12
263.5200000000000	0	n/a	158113	KeyDown	41324	4	Index	12
263.7050000000000	0	n/a	158224	KeyDown	41324	4	Index	12
263.8150000000000	0	n/a	158290	KeyDown	41324	1	Little	12
263.9933333333333	0	n/a	158397	KeyDown	41324	3	Middle	12
264.1250000000000	0	n/a	158476	KeyDown	41324	2	Ring	12
264.2700000000000	0	n/a	158563	KeyDown	41324	4	Index	12
264.4683333333334	0	n/a	158682	KeyDown	41324	4	Index	12
264.5866666666667	0	n/a	158753	KeyDown	41324	1	Little	12
264.9700000000000	0	n/a	158983	KeyDown	41324	3	Middle	12
265.0966666666667	0	n/a	159059	KeyDown	41324	2	Ring	12
265.2350000000000	0	n/a	159142	KeyDown	41324	4	Index	12
265.4483333333333	0	n/a	159270	KeyDown	41324	4	Index	12
265.5633333333333	0	n/a	159339	KeyDown	41324	1	Little	12
265.7400000000000	0	n/a	159445	KeyDown	41324	3	Middle	12
265.8633333333333	0	n/a	159519	KeyDown	41324	2	Ring	12
265.9983333333333	0	n/a	159600	KeyDown	41324	4	Index	12
266.1900000000000	0	n/a	159715	KeyDown	41324	4	Index	12
266.3016666666667	0	n/a	159782	KeyDown	41324	1	Little	12
266.4883333333333	0	n/a	159894	KeyDown	41324	3	Middle	12
266.6050000000000	0	n/a	159964	KeyDown	41324	2	Ring	12
266.7550000000000	0	n/a	160054	KeyDown	41324	4	Index	12
266.9500000000000	0	n/a	160171	KeyDown	41324	4	Index	12
267.0633333333333	0	n/a	160239	KeyDown	41324	1	Little	12
267.2416666666667	0	n/a	160346	KeyDown	41324	3	Middle	12
267.3550000000000	0	n/a	160414	KeyDown	41324	2	Ring	12
267.5033333333333	0	n/a	160503	KeyDown	41324	4	Index	12
267.6983333333333	0	n/a	160620	KeyDown	41324	4	Index	12
267.8250000000000	0	n/a	160696	KeyDown	41324	1	Little	12
268.0150000000000	0	n/a	160810	KeyDown	41324	3	Middle	12
268.1366666666667	0	n/a	160883	KeyDown	41324	2	Ring	12
268.2983333333333	0	n/a	160980	KeyDown	41324	4	Index	12
268.5433333333334	0	n/a	161127	KeyDown	41324	4	Index	12
268.7350000000000	0	n/a	161242	KeyDown	41324	1	Little	12
269.0283333333334	0	n/a	161418	KeyDown	41324	3	Middle	12
269.1516666666667	0	n/a	161492	KeyDown	41324	2	Ring	12
269.2866666666667	0	n/a	161573	KeyDown	41324	4	Index	12
269.4766666666667	0	n/a	161687	KeyDown	41324	4	Index	12
269.6000000000000	0	n/a	161761	KeyDown	41324	1	Little	12
269.7633333333334	0	n/a	161859	KeyDown	41324	3	Middle	12
270.0000000000000	0	n/a	162001	KeyDown	41324	2	Ring	12
270.1483333333334	0	n/a	162090	StopPractice	41324	n/a	n/a	12
270.1500000000000	0	n/a	162091	StartRest	XXXXX	n/a	n/a	12
280.1933333333333	0	n/a	168117	StopRest	XXXXX	n/a	n/a	12
280.1950000000000	0	UPPT001	168118	StartPractice	41324	n/a	n/a	13
281.1300000000000	0	n/a	168679	KeyDown	41324	4	Index	13
281.4616666666667	0	n/a	168878	KeyDown	41324	1	Little	13
281.7333333333333	0	n/a	169041	KeyDown	41324	3	Middle	13
281.8866666666667	0	n/a	169133	KeyDown	41324	2	Ring	13
282.0450000000000	0	n/a	169228	KeyDown	41324	4	Index	13
282.2416666666667	0	n/a	169346	KeyDown	41324	4	Index	13
282.3600000000000	0	n/a	169417	KeyDown	41324	1	Little	13
282.5233333333334	0	n/a	169515	KeyDown	41324	3	Middle	13
282.6483333333334	0	n/a	169590	KeyDown	41324	2	Ring	13
282.7950000000000	0	n/a	169678	KeyDown	41324	4	Index	13
282.9750000000000	0	n/a	169786	KeyDown	41324	4	Index	13
283.1016666666667	0	n/a	169862	KeyDown	41324	1	Little	13
283.2700000000000	0	n/a	169963	KeyDown	41324	3	Middle	13
283.3833333333333	0	n/a	170031	KeyDown	41324	2	Ring	13
283.5466666666667	0	n/a	170129	KeyDown	41324	4	Index	13
283.7300000000000	0	n/a	170239	KeyDown	41324	4	Index	13
283.8633333333333	0	n/a	170319	KeyDown	41324	1	Little	13
284.0416666666667	0	n/a	170426	KeyDown	41324	3	Middle	13
284.1383333333334	0	n/a	170484	KeyDown	41324	2	Ring	13
284.2883333333334	0	n/a	170574	KeyDown	41324	4	Index	13
284.4800000000000	0	n/a	170689	KeyDown	41324	4	Index	13
284.6083333333333	0	n/a	170766	KeyDown	41324	1	Little	13
284.7966666666667	0	n/a	170879	KeyDown	41324	3	Middle	13
284.9066666666667	0	n/a	170945	KeyDown	41324	2	Ring	13
285.0716666666667	0	n/a	171044	KeyDown	41324	4	Index	13
285.2616666666667	0	n/a	171158	KeyDown	41324	4	Index	13
285.3983333333334	0	n/a	171240	KeyDown	41324	1	Little	13
285.5750000000000	0	n/a	171346	KeyDown	41324	3	Middle	13
285.6783333333333	0	n/a	171408	KeyDown	41324	2	Ring	13
285.8283333333334	0	n/a	171498	KeyDown	41324	4	Index	13
286.0316666666667	0	n/a	171620	KeyDown	41324	4	Index	13
286.1683333333334	0	n/a	171702	KeyDown	41324	1	Little	13
286.3933333333334	0	n/a	171837	KeyDown	41324	3	Middle	13
286.4883333333333	0	n/a	171894	KeyDown	41324	2	Ring	13
286.6450000000000	0	n/a	171988	KeyDown	41324	4	Index	13
286.8550000000000	0	n/a	172114	KeyDown	41324	4	Index	13
286.9933333333333	0	n/a	172197	KeyDown	41324	1	Little	13
287.1700000000000	0	n/a	172303	KeyDown	41324	3	Middle	13
287.2566666666667	0	n/a	172355	KeyDown	41324	2	Ring	13
287.4166666666667	0	n/a	172451	KeyDown	41324	4	Index	13
287.6116666666667	0	n/a	172568	KeyDown	41324	4	Index	13
287.7366666666667	0	n/a	172643	KeyDown	41324	1	Little	13
287.9366666666667	0	n/a	172763	KeyDown	41324	3	Middle	13
288.0483333333333	0	n/a	172830	KeyDown	41324	2	Ring	13
288.1866666666667	0	n/a	172913	KeyDown	41324	4	Index	13
288.3883333333334	0	n/a	173034	KeyDown	41324	4	Index	13
288.5183333333334	0	n/a	173112	KeyDown	41324	1	Little	13
288.7983333333333	0	n/a	173280	KeyDown	41324	3	Middle	13
288.9466666666667	0	n/a	173369	KeyDown	41324	2	Ring	13
289.1166666666667	0	n/a	173471	KeyDown	41324	4	Index	13
289.3116666666667	0	n/a	173588	KeyDown	41324	4	Index	13
289.4383333333333	0	n/a	173664	KeyDown	41324	1	Little	13
289.5966666666667	0	n/a	173759	KeyDown	41324	3	Middle	13
289.7466666666667	0	n/a	173849	KeyDown	41324	2	Ring	13
289.9033333333334	0	n/a	173943	KeyDown	41324	4	Index	13
290.1183333333333	0	n/a	174072	KeyDown	41324	4	Index	13
290.2416666666667	0	n/a	174146	StopPractice	41324	n/a	n/a	13
290.2433333333333	0	n/a	174147	StartRest	XXXXX	n/a	n/a	13
300.2833333333334	0	n/a	180171	StopRest	XXXXX	n/a	n/a	13
300.2850000000000	0	UPPT001	180172	StartPractice	41324	n/a	n/a	14
300.7966666666667	0	n/a	180479	KeyDown	41324	4	Index	14
300.9216666666667	0	n/a	180554	KeyDown	41324	1	Little	14
301.1100000000000	0	n/a	180667	KeyDown	41324	3	Middle	14
301.2133333333334	0	n/a	180729	KeyDown	41324	2	Ring	14
301.3500000000000	0	n/a	180811	KeyDown	41324	4	Index	14
301.5266666666667	0	n/a	180917	KeyDown	41324	4	Index	14
301.6500000000000	0	n/a	180991	KeyDown	41324	1	Little	14
301.8100000000000	0	n/a	181087	KeyDown	41324	3	Middle	14
301.9233333333333	0	n/a	181155	KeyDown	41324	2	Ring	14
302.0566666666667	0	n/a	181235	KeyDown	41324	4	Index	14
302.2466666666667	0	n/a	181349	KeyDown	41324	4	Index	14
302.3666666666667	0	n/a	181421	KeyDown	41324	1	Little	14
302.5200000000000	0	n/a	181513	KeyDown	41324	3	Middle	14
302.6250000000000	0	n/a	181576	KeyDown	41324	2	Ring	14
302.7666666666667	0	n/a	181661	KeyDown	41324	4	Index	14
302.9466666666667	0	n/a	181769	KeyDown	41324	4	Index	14
303.0750000000000	0	n/a	181846	KeyDown	41324	1	Little	14
303.2483333333333	0	n/a	181950	KeyDown	41324	3	Middle	14
303.3466666666667	0	n/a	182009	KeyDown	41324	2	Ring	14
303.4933333333333	0	n/a	182097	KeyDown	41324	4	Index	14
303.6883333333333	0	n/a	182214	KeyDown	41324	4	Index	14
303.8033333333333	0	n/a	182283	KeyDown	41324	1	Little	14
304.2133333333334	0	n/a	182529	KeyDown	41324	3	Middle	14
304.3216666666667	0	n/a	182594	KeyDown	41324	2	Ring	14
304.4833333333333	0	n/a	182691	KeyDown	41324	4	Index	14
304.6833333333333	0	n/a	182811	KeyDown	41324	4	Index	14
304.8083333333333	0	n/a	182886	KeyDown	41324	1	Little	14
304.9983333333333	0	n/a	183000	KeyDown	41324	3	Middle	14
305.1133333333333	0	n/a	183069	KeyDown	41324	2	Ring	14
305.2516666666667	0	n/a	183152	KeyDown	41324	4	Index	14
305.4483333333334	0	n/a	183270	KeyDown	41324	4	Index	14
305.5866666666667	0	n/a	183353	KeyDown	41324	1	Little	14
305.7633333333334	0	n/a	183459	KeyDown	41324	3	Middle	14
305.8666666666667	0	n/a	183521	KeyDown	41324	2	Ring	14
306.0166666666667	0	n/a	183611	KeyDown	41324	4	Index	14
306.2350000000000	0	n/a	183742	KeyDown	41324	4	Index	14
306.3550000000000	0	n/a	183814	KeyDown	41324	1	Little	14
306.5583333333333	0	n/a	183936	KeyDown	41324	3	Middle	14
306.6716666666667	0	n/a	184004	KeyDown	41324	2	Ring	14
306.8150000000000	0	n/a	184090	KeyDown	41324	4	Index	14
307.0283333333334	0	n/a	184218	KeyDown	41324	4	Index	14
307.1550000000000	0	n/a	184294	KeyDown	41324	1	Little	14
307.3383333333334	0	n/a	184404	KeyDown	41324	3	Middle	14
307.4633333333334	0	n/a	184479	KeyDown	41324	2	Ring	14
307.6316666666667	0	n/a	184580	KeyDown	41324	1	Little	14
308.0266666666667	0	n/a	184817	KeyDown	41324	4	Index	14
308.8616666666667	0	n/a	185318	KeyDown	41324	3	Middle	14
309.1766666666667	0	n/a	185507	KeyDown	41324	1	Little	14
309.3783333333333	0	n/a	185628	KeyDown	41324	4	Index	14
309.6966666666667	0	n/a	185819	KeyDown	41324	4	Index	14
310.3316666666667	0	n/a	186200	StopPractice	41324	n/a	n/a	14
310.3333333333334	0	n/a	186201	StartRest	XXXXX	n/a	n/a	14
320.3750000000000	0	n/a	192226	StopRest	XXXXX	n/a	n/a	14
320.3766666666667	0	UPPT001	192227	StartPractice	41324	n/a	n/a	15
321.4250000000000	0	n/a	192856	KeyDown	41324	4	Index	15
321.5833333333334	0	n/a	192951	KeyDown	41324	1	Little	15
321.7433333333333	0	n/a	193047	KeyDown	41324	3	Middle	15
321.8450000000000	0	n/a	193108	KeyDown	41324	2	Ring	15
321.9950000000000	0	n/a	193198	KeyDown	41324	4	Index	15
322.1966666666667	0	n/a	193319	KeyDown	41324	4	Index	15
322.3116666666667	0	n/a	193388	KeyDown	41324	1	Little	15
322.4950000000000	0	n/a	193498	KeyDown	41324	3	Middle	15
322.6100000000000	0	n/a	193567	KeyDown	41324	2	Ring	15
322.7800000000000	0	n/a	193669	KeyDown	41324	4	Index	15
322.9650000000000	0	n/a	193780	KeyDown	41324	4	Index	15
323.1083333333333	0	n/a	193866	KeyDown	41324	1	Little	15
323.2983333333333	0	n/a	193980	KeyDown	41324	3	Middle	15
323.4083333333334	0	n/a	194046	KeyDown	41324	2	Ring	15
323.5550000000000	0	n/a	194134	KeyDown	41324	4	Index	15
323.7600000000000	0	n/a	194257	KeyDown	41324	4	Index	15
323.8933333333334	0	n/a	194337	KeyDown	41324	1	Little	15
324.1233333333333	0	n/a	194475	KeyDown	41324	3	Middle	15
324.2316666666667	0	n/a	194540	KeyDown	41324	2	Ring	15
324.3983333333334	0	n/a	194640	KeyDown	41324	4	Index	15
324.6350000000000	0	n/a	194782	KeyDown	41324	4	Index	15
324.7783333333334	0	n/a	194868	KeyDown	41324	1	Little	15
324.9750000000000	0	n/a	194986	KeyDown	41324	3	Middle	15
325.1000000000000	0	n/a	195061	KeyDown	41324	2	Ring	15
325.2533333333333	0	n/a	195153	KeyDown	41324	4	Index	15
325.4700000000000	0	n/a	195283	KeyDown	41324	4	Index	15
325.6083333333333	0	n/a	195366	KeyDown	41324	1	Little	15
325.7966666666667	0	n/a	195479	KeyDown	41324	3	Middle	15
325.9100000000000	0	n/a	195547	KeyDown	41324	2	Ring	15
326.0433333333334	0	n/a	195627	KeyDown	41324	4	Index	15
326.2733333333334	0	n/a	195765	KeyDown	41324	4	Index	15
326.4050000000000	0	n/a	195844	KeyDown	41324	1	Little	15
326.6450000000000	0	n/a	195988	KeyDown	41324	3	Middle	15
326.7716666666667	0	n/a	196064	KeyDown	41324	2	Ring	15
326.9250000000000	0	n/a	196156	KeyDown	41324	4	Index	15
327.2416666666667	0	n/a	196346	KeyDown	41324	4	Index	15
327.4066666666667	0	n/a	196445	KeyDown	41324	1	Little	15
327.6066666666667	0	n/a	196565	KeyDown	41324	3	Middle	15
327.7433333333333	0	n/a	196647	KeyDown	41324	2	Ring	15
327.8883333333334	0	n/a	196734	KeyDown	41324	4	Index	15
328.1733333333333	0	n/a	196905	KeyDown	41324	4	Index	15
328.3250000000000	0	n/a	196996	KeyDown	41324	1	Little	15
328.5150000000000	0	n/a	197110	KeyDown	41324	3	Middle	15
328.6333333333334	0	n/a	197181	KeyDown	41324	2	Ring	15
328.7600000000000	0	n/a	197257	KeyDown	41324	4	Index	15
328.9700000000000	0	n/a	197383	KeyDown	41324	4	Index	15
329.1066666666667	0	n/a	197465	KeyDown	41324	1	Little	15
329.2883333333334	0	n/a	197574	KeyDown	41324	3	Middle	15
329.4050000000000	0	n/a	197644	KeyDown	41324	2	Ring	15
329.5416666666667	0	n/a	197726	KeyDown	41324	4	Index	15
329.7683333333334	0	n/a	197862	KeyDown	41324	4	Index	15
329.9050000000000	0	n/a	197944	KeyDown	41324	1	Little	15
330.0550000000000	0	n/a	198034	KeyDown	41324	3	Middle	15
330.1833333333333	0	n/a	198111	KeyDown	41324	2	Ring	15
330.3083333333333	0	n/a	198186	KeyDown	41324	4	Index	15
330.4233333333333	0	n/a	198255	StopPractice	41324	n/a	n/a	15
330.4250000000000	0	n/a	198256	StartRest	XXXXX	n/a	n/a	15
340.4666666666667	0	n/a	204281	StopRest	XXXXX	n/a	n/a	15
340.4683333333334	0	UPPT001	204282	StartPractice	41324	n/a	n/a	16
341.2000000000000	0	n/a	204721	KeyDown	41324	4	Index	16
341.3566666666667	0	n/a	204815	KeyDown	41324	1	Little	16
341.5016666666667	0	n/a	204902	KeyDown	41324	3	Middle	16
341.6000000000000	0	n/a	204961	KeyDown	41324	2	Ring	16
341.7283333333334	0	n/a	205038	KeyDown	41324	4	Index	16
341.9400000000000	0	n/a	205165	KeyDown	41324	4	Index	16
342.0650000000000	0	n/a	205240	KeyDown	41324	1	Little	16
342.2450000000000	0	n/a	205348	KeyDown	41324	3	Middle	16
342.3616666666667	0	n/a	205418	KeyDown	41324	2	Ring	16
342.5416666666667	0	n/a	205526	KeyDown	41324	4	Index	16
342.7750000000000	0	n/a	205666	KeyDown	41324	4	Index	16
342.9016666666667	0	n/a	205742	KeyDown	41324	1	Little	16
343.1600000000000	0	n/a	205897	KeyDown	41324	3	Middle	16
343.3100000000000	0	n/a	205987	KeyDown	41324	2	Ring	16
343.4750000000000	0	n/a	206086	KeyDown	41324	4	Index	16
343.7316666666667	0	n/a	206240	KeyDown	41324	4	Index	16
343.8783333333333	0	n/a	206328	KeyDown	41324	1	Little	16
344.0466666666667	0	n/a	206429	KeyDown	41324	3	Middle	16
344.2066666666667	0	n/a	206525	KeyDown	41324	1	Little	16
344.4000000000000	0	n/a	206641	KeyDown	41324	4	Index	16
345.1250000000000	0	n/a	207076	KeyDown	41324	1	Little	16
345.3483333333334	0	n/a	207210	KeyDown	41324	3	Middle	16
345.6533333333334	0	n/a	207393	KeyDown	41324	2	Ring	16
345.9166666666667	0	n/a	207551	KeyDown	41324	4	Index	16
346.2083333333334	0	n/a	207726	KeyDown	41324	4	Index	16
346.3866666666667	0	n/a	207833	KeyDown	41324	1	Little	16
346.5800000000000	0	n/a	207949	KeyDown	41324	3	Middle	16
346.7050000000000	0	n/a	208024	KeyDown	41324	2	Ring	16
346.8633333333333	0	n/a	208119	KeyDown	41324	4	Index	16
347.0716666666667	0	n/a	208244	KeyDown	41324	4	Index	16
347.2083333333334	0	n/a	208326	KeyDown	41324	1	Little	16
347.3850000000000	0	n/a	208432	KeyDown	41324	3	Middle	16
347.5066666666667	0	n/a	208505	KeyDown	41324	2	Ring	16
347.6700000000000	0	n/a	208603	KeyDown	41324	4	Index	16
347.8983333333334	0	n/a	208740	KeyDown	41324	4	Index	16
348.0550000000000	0	n/a	208834	KeyDown	41324	1	Little	16
348.2216666666667	0	n/a	208934	KeyDown	41324	3	Middle	16
348.3366666666667	0	n/a	209003	KeyDown	41324	2	Ring	16
348.4966666666667	0	n/a	209099	KeyDown	41324	4	Index	16
348.7033333333334	0	n/a	209223	KeyDown	41324	4	Index	16
348.8466666666667	0	n/a	209309	KeyDown	41324	1	Little	16
349.0100000000000	0	n/a	209407	KeyDown	41324	3	Middle	16
349.1350000000000	0	n/a	209482	KeyDown	41324	2	Ring	16
349.2850000000000	0	n/a	209572	KeyDown	41324	4	Index	16
349.4966666666667	0	n/a	209699	KeyDown	41324	4	Index	16
349.6383333333334	0	n/a	209784	KeyDown	41324	1	Little	16
349.8700000000000	0	n/a	209923	KeyDown	41324	4	Index	16
350.0116666666667	0	n/a	210008	KeyDown	41324	3	Middle	16
350.2083333333334	0	n/a	210126	KeyDown	41324	2	Ring	16
350.4366666666667	0	n/a	210263	KeyDown	41324	4	Index	16
350.5150000000000	0	n/a	210310	StopPractice	41324	n/a	n/a	16
350.5166666666667	0	n/a	210311	StartRest	XXXXX	n/a	n/a	16
360.5583333333333	0	n/a	216336	StopRest	XXXXX	n/a	n/a	16
360.5600000000000	0	UPPT001	216337	StartPractice	41324	n/a	n/a	17
361.2766666666667	0	n/a	216767	KeyDown	41324	4	Index	17
361.4433333333334	0	n/a	216867	KeyDown	41324	1	Little	17
361.5900000000000	0	n/a	216955	KeyDown	41324	3	Middle	17
361.6733333333333	0	n/a	217005	KeyDown	41324	2	Ring	17
361.8400000000000	0	n/a	217105	KeyDown	41324	4	Index	17
362.0616666666667	0	n/a	217238	KeyDown	41324	4	Index	17
362.2100000000000	0	n/a	217327	KeyDown	41324	1	Little	17
362.3700000000000	0	n/a	217423	KeyDown	41324	3	Middle	17
362.4633333333334	0	n/a	217479	KeyDown	41324	2	Ring	17
362.6133333333333	0	n/a	217569	KeyDown	41324	4	Index	17
362.8333333333334	0	n/a	217701	KeyDown	41324	4	Index	17
362.9683333333334	0	n/a	217782	KeyDown	41324	1	Little	17
363.1833333333333	0	n/a	217911	KeyDown	41324	3	Middle	17
363.2650000000000	0	n/a	217960	KeyDown	41324	2	Ring	17
363.4133333333334	0	n/a	218049	KeyDown	41324	4	Index	17
363.6300000000000	0	n/a	218179	KeyDown	41324	4	Index	17
363.7583333333334	0	n/a	218256	KeyDown	41324	1	Little	17
363.9633333333334	0	n/a	218379	KeyDown	41324	3	Middle	17
364.0466666666667	0	n/a	218429	KeyDown	41324	2	Ring	17
364.2050000000000	0	n/a	218524	KeyDown	41324	4	Index	17
364.4150000000000	0	n/a	218650	KeyDown	41324	4	Index	17
364.5300000000000	0	n/a	218719	KeyDown	41324	1	Little	17
364.7933333333334	0	n/a	218877	KeyDown	41324	3	Middle	17
364.8816666666667	0	n/a	218930	KeyDown	41324	2	Ring	17
365.0300000000000	0	n/a	219019	KeyDown	41324	4	Index	17
365.2516666666667	0	n/a	219152	KeyDown	41324	4	Index	17
365.4066666666667	0	n/a	219245	KeyDown	41324	1	Little	17
365.8366666666667	0	n/a	219503	KeyDown	41324	3	Middle	17
366.0100000000000	0	n/a	219607	KeyDown	41324	2	Ring	17
366.1883333333333	0	n/a	219714	KeyDown	41324	4	Index	17
366.4083333333334	0	n/a	219846	KeyDown	41324	4	Index	17
366.5483333333333	0	n/a	219930	KeyDown	41324	1	Little	17
366.7633333333334	0	n/a	220059	KeyDown	41324	3	Middle	17
366.8650000000000	0	n/a	220120	KeyDown	41324	2	Ring	17
367.0183333333334	0	n/a	220212	KeyDown	41324	4	Index	17
367.2333333333333	0	n/a	220341	KeyDown	41324	4	Index	17
367.3850000000000	0	n/a	220432	KeyDown	41324	1	Little	17
367.6083333333333	0	n/a	220566	KeyDown	41324	3	Middle	17
367.7216666666667	0	n/a	220634	KeyDown	41324	2	Ring	17
367.8916666666667	0	n/a	220736	KeyDown	41324	4	Index	17
368.1250000000000	0	n/a	220876	KeyDown	41324	4	Index	17
368.2716666666667	0	n/a	220964	KeyDown	41324	1	Little	17
368.5033333333333	0	n/a	221103	KeyDown	41324	3	Middle	17
368.5783333333334	0	n/a	221148	KeyDown	41324	2	Ring	17
368.7500000000000	0	n/a	221251	KeyDown	41324	4	Index	17
368.9583333333334	0	n/a	221376	KeyDown	41324	4	Index	17
369.1133333333333	0	n/a	221469	KeyDown	41324	1	Little	17
369.3083333333333	0	n/a	221586	KeyDown	41324	3	Middle	17
369.4416666666667	0	n/a	221666	KeyDown	41324	2	Ring	17
369.5966666666667	0	n/a	221759	KeyDown	41324	4	Index	17
369.8183333333334	0	n/a	221892	KeyDown	41324	4	Index	17
369.9583333333334	0	n/a	221976	KeyDown	41324	1	Little	17
370.1150000000000	0	n/a	222070	KeyDown	41324	3	Middle	17
370.2383333333333	0	n/a	222144	KeyDown	41324	2	Ring	17
370.4016666666667	0	n/a	222242	KeyDown	41324	4	Index	17
370.6066666666667	0	n/a	222365	StopPractice	41324	n/a	n/a	17
370.6083333333333	0	n/a	222366	StartRest	XXXXX	n/a	n/a	17
380.6500000000000	0	n/a	228391	StopRest	XXXXX	n/a	n/a	17
380.6516666666667	0	UPPT001	228392	StartPractice	41324	n/a	n/a	18
381.7300000000000	0	n/a	229039	KeyDown	41324	4	Index	18
381.8533333333334	0	n/a	229113	KeyDown	41324	1	Little	18
382.0133333333334	0	n/a	229209	KeyDown	41324	3	Middle	18
382.1333333333334	0	n/a	229281	KeyDown	41324	2	Ring	18
382.2900000000000	0	n/a	229375	KeyDown	41324	4	Index	18
382.4833333333333	0	n/a	229491	KeyDown	41324	4	Index	18
382.6300000000001	0	n/a	229579	KeyDown	41324	1	Little	18
382.7916666666667	0	n/a	229676	KeyDown	41324	3	Middle	18
382.9000000000000	0	n/a	229741	KeyDown	41324	2	Ring	18
383.0533333333333	0	n/a	229833	KeyDown	41324	4	Index	18
383.2483333333333	0	n/a	229950	KeyDown	41324	4	Index	18
383.3916666666667	0	n/a	230036	KeyDown	41324	1	Little	18
383.5483333333333	0	n/a	230130	KeyDown	41324	3	Middle	18
383.6533333333334	0	n/a	230193	KeyDown	41324	2	Ring	18
383.8000000000000	0	n/a	230281	KeyDown	41324	4	Index	18
384.0033333333333	0	n/a	230403	KeyDown	41324	4	Index	18
384.1366666666667	0	n/a	230483	KeyDown	41324	1	Little	18
384.3183333333334	0	n/a	230592	KeyDown	41324	3	Middle	18
384.4183333333334	0	n/a	230652	KeyDown	41324	2	Ring	18
384.5850000000000	0	n/a	230752	KeyDown	41324	4	Index	18
384.7800000000000	0	n/a	230869	KeyDown	41324	4	Index	18
384.9133333333334	0	n/a	230949	KeyDown	41324	1	Little	18
385.1300000000001	0	n/a	231079	KeyDown	41324	3	Middle	18
385.2333333333333	0	n/a	231141	KeyDown	41324	2	Ring	18
385.4083333333334	0	n/a	231246	KeyDown	41324	4	Index	18
385.6133333333333	0	n/a	231369	KeyDown	41324	4	Index	18
385.7600000000000	0	n/a	231457	KeyDown	41324	1	Little	18
385.9100000000000	0	n/a	231547	KeyDown	41324	3	Middle	18
386.0283333333334	0	n/a	231618	KeyDown	41324	2	Ring	18
386.1783333333333	0	n/a	231708	KeyDown	41324	4	Index	18
386.3783333333333	0	n/a	231828	KeyDown	41324	4	Index	18
386.5150000000000	0	n/a	231910	KeyDown	41324	1	Little	18
386.6600000000000	0	n/a	231997	KeyDown	41324	3	Middle	18
386.7783333333334	0	n/a	232068	KeyDown	41324	2	Ring	18
386.9416666666667	0	n/a	232166	KeyDown	41324	4	Index	18
387.1483333333334	0	n/a	232290	KeyDown	41324	4	Index	18
387.3050000000000	0	n/a	232384	KeyDown	41324	1	Little	18
387.6783333333333	0	n/a	232608	KeyDown	41324	3	Middle	18
387.7983333333333	0	n/a	232680	KeyDown	41324	2	Ring	18
387.9566666666667	0	n/a	232775	KeyDown	41324	4	Index	18
388.1700000000000	0	n/a	232903	KeyDown	41324	4	Index	18
388.3100000000000	0	n/a	232987	KeyDown	41324	1	Little	18
388.5333333333334	0	n/a	233121	KeyDown	41324	3	Middle	18
388.6383333333334	0	n/a	233184	KeyDown	41324	2	Ring	18
388.7800000000000	0	n/a	233269	KeyDown	41324	4	Index	18
388.9883333333333	0	n/a	233394	KeyDown	41324	4	Index	18
389.5150000000000	0	n/a	233710	KeyDown	41324	1	Little	18
389.7933333333334	0	n/a	233877	KeyDown	41324	3	Middle	18
389.9516666666667	0	n/a	233972	KeyDown	41324	2	Ring	18
390.1550000000000	0	n/a	234094	KeyDown	41324	4	Index	18
390.3800000000001	0	n/a	234229	KeyDown	41324	4	Index	18
390.5316666666667	0	n/a	234320	KeyDown	41324	1	Little	18
390.6983333333334	0	n/a	234420	StopPractice	41324	n/a	n/a	18
390.7000000000000	0	n/a	234421	StartRest	XXXXX	n/a	n/a	18
400.7416666666667	0	n/a	240446	StopRest	XXXXX	n/a	n/a	18
400.7433333333333	0	UPPT001	240447	StartPractice	41324	n/a	n/a	19
401.5483333333333	0	n/a	240930	KeyDown	41324	4	Index	19
401.6233333333333	0	n/a	240975	KeyDown	41324	1	Little	19
401.7983333333333	0	n/a	241080	KeyDown	41324	3	Middle	19
401.8966666666667	0	n/a	241139	KeyDown	41324	2	Ring	19
402.0466666666667	0	n/a	241229	KeyDown	41324	4	Index	19
402.2350000000000	0	n/a	241342	KeyDown	41324	4	Index	19
402.3650000000000	0	n/a	241420	KeyDown	41324	1	Little	19
402.5266666666667	0	n/a	241517	KeyDown	41324	3	Middle	19
402.6300000000001	0	n/a	241579	KeyDown	41324	2	Ring	19
402.7900000000000	0	n/a	241675	KeyDown	41324	4	Index	19
402.9733333333334	0	n/a	241785	KeyDown	41324	4	Index	19
403.1000000000000	0	n/a	241861	KeyDown	41324	1	Little	19
403.2566666666667	0	n/a	241955	KeyDown	41324	3	Middle	19
403.3600000000000	0	n/a	242017	KeyDown	41324	2	Ring	19
403.5050000000001	0	n/a	242104	KeyDown	41324	4	Index	19
403.7000000000000	0	n/a	242221	KeyDown	41324	4	Index	19
403.8366666666667	0	n/a	242303	KeyDown	41324	1	Little	19
404.0000000000000	0	n/a	242401	KeyDown	41324	3	Middle	19
404.1050000000000	0	n/a	242464	KeyDown	41324	2	Ring	19
404.2666666666667	0	n/a	242561	KeyDown	41324	4	Index	19
404.4616666666667	0	n/a	242678	KeyDown	41324	4	Index	19
404.5900000000000	0	n/a	242755	KeyDown	41324	1	Little	19
404.7716666666667	0	n/a	242864	KeyDown	41324	3	Middle	19
404.9066666666667	0	n/a	242945	KeyDown	41324	2	Ring	19
405.0800000000000	0	n/a	243049	KeyDown	41324	4	Index	19
405.2900000000000	0	n/a	243175	KeyDown	41324	4	Index	19
405.4400000000000	0	n/a	243265	KeyDown	41324	1	Little	19
405.6733333333333	0	n/a	243405	KeyDown	41324	3	Middle	19
405.7683333333334	0	n/a	243462	KeyDown	41324	2	Ring	19
405.9466666666667	0	n/a	243569	KeyDown	41324	4	Index	19
406.1550000000000	0	n/a	243694	KeyDown	41324	4	Index	19
406.2800000000000	0	n/a	243769	KeyDown	41324	1	Little	19
406.5200000000000	0	n/a	243913	KeyDown	41324	3	Middle	19
406.6116666666667	0	n/a	243968	KeyDown	41324	2	Ring	19
406.8050000000000	0	n/a	244084	KeyDown	41324	4	Index	19
407.0250000000000	0	n/a	244216	KeyDown	41324	4	Index	19
407.2100000000000	0	n/a	244327	KeyDown	41324	1	Little	19
407.5700000000001	0	n/a	244543	KeyDown	41324	3	Middle	19
407.7300000000000	0	n/a	244639	KeyDown	41324	2	Ring	19
407.9000000000000	0	n/a	244741	KeyDown	41324	4	Index	19
408.1366666666667	0	n/a	244883	KeyDown	41324	4	Index	19
408.2733333333334	0	n/a	244965	KeyDown	41324	1	Little	19
408.4500000000000	0	n/a	245071	KeyDown	41324	3	Middle	19
408.5483333333333	0	n/a	245130	KeyDown	41324	2	Ring	19
408.7116666666667	0	n/a	245228	KeyDown	41324	4	Index	19
408.9216666666667	0	n/a	245354	KeyDown	41324	4	Index	19
409.0416666666667	0	n/a	245426	KeyDown	41324	1	Little	19
409.2000000000000	0	n/a	245521	KeyDown	41324	3	Middle	19
409.3166666666667	0	n/a	245591	KeyDown	41324	2	Ring	19
409.5050000000001	0	n/a	245704	KeyDown	41324	4	Index	19
409.7266666666667	0	n/a	245837	KeyDown	41324	4	Index	19
409.8600000000000	0	n/a	245917	KeyDown	41324	1	Little	19
410.0450000000000	0	n/a	246028	KeyDown	41324	3	Middle	19
410.1650000000000	0	n/a	246100	KeyDown	41324	2	Ring	19
410.6800000000000	0	n/a	246409	KeyDown	41324	2	Ring	19
410.7900000000000	0	n/a	246475	StopPractice	41324	n/a	n/a	19
410.7916666666667	0	n/a	246476	StartRest	XXXXX	n/a	n/a	19
420.8333333333334	0	n/a	252501	StopRest	XXXXX	n/a	n/a	19
420.8350000000000	0	UPPT001	252502	StartPractice	41324	n/a	n/a	20
422.2416666666667	0	n/a	253346	KeyDown	41324	4	Index	20
422.3400000000000	0	n/a	253405	KeyDown	41324	1	Little	20
422.4933333333333	0	n/a	253497	KeyDown	41324	3	Middle	20
422.6116666666667	0	n/a	253568	KeyDown	41324	2	Ring	20
422.7633333333334	0	n/a	253659	KeyDown	41324	4	Index	20
423.0400000000000	0	n/a	253825	KeyDown	41324	4	Index	20
423.1916666666667	0	n/a	253916	KeyDown	41324	1	Little	20
423.3533333333334	0	n/a	254013	KeyDown	41324	3	Middle	20
423.4716666666667	0	n/a	254084	KeyDown	41324	2	Ring	20
423.6283333333334	0	n/a	254178	KeyDown	41324	4	Index	20
423.8083333333333	0	n/a	254286	KeyDown	41324	4	Index	20
423.9216666666667	0	n/a	254354	KeyDown	41324	1	Little	20
424.0733333333334	0	n/a	254445	KeyDown	41324	3	Middle	20
424.1833333333333	0	n/a	254511	KeyDown	41324	2	Ring	20
424.3266666666667	0	n/a	254597	KeyDown	41324	4	Index	20
424.5233333333334	0	n/a	254715	KeyDown	41324	4	Index	20
424.6300000000001	0	n/a	254779	KeyDown	41324	1	Little	20
424.7933333333334	0	n/a	254877	KeyDown	41324	3	Middle	20
424.9133333333334	0	n/a	254949	KeyDown	41324	2	Ring	20
425.0600000000000	0	n/a	255037	KeyDown	41324	4	Index	20
425.2516666666667	0	n/a	255152	KeyDown	41324	4	Index	20
425.3783333333334	0	n/a	255228	KeyDown	41324	1	Little	20
425.5633333333333	0	n/a	255339	KeyDown	41324	3	Middle	20
425.6800000000000	0	n/a	255409	KeyDown	41324	2	Ring	20
425.8366666666667	0	n/a	255503	KeyDown	41324	4	Index	20
426.0550000000000	0	n/a	255634	KeyDown	41324	4	Index	20
426.2000000000000	0	n/a	255721	KeyDown	41324	1	Little	20
426.4083333333334	0	n/a	255846	KeyDown	41324	3	Middle	20
426.5200000000000	0	n/a	255913	KeyDown	41324	2	Ring	20
426.6783333333333	0	n/a	256008	KeyDown	41324	4	Index	20
426.8783333333334	0	n/a	256128	KeyDown	41324	4	Index	20
427.0266666666667	0	n/a	256217	KeyDown	41324	1	Little	20
427.1933333333334	0	n/a	256317	KeyDown	41324	3	Middle	20
427.2883333333334	0	n/a	256374	KeyDown	41324	2	Ring	20
427.4333333333333	0	n/a	256461	KeyDown	41324	4	Index	20
427.6466666666667	0	n/a	256589	KeyDown	41324	4	Index	20
427.7883333333334	0	n/a	256674	KeyDown	41324	1	Little	20
427.9616666666667	0	n/a	256778	KeyDown	41324	3	Middle	20
428.0916666666667	0	n/a	256856	KeyDown	41324	2	Ring	20
428.2616666666667	0	n/a	256958	KeyDown	41324	4	Index	20
428.4533333333334	0	n/a	257073	KeyDown	41324	4	Index	20
428.5883333333334	0	n/a	257154	KeyDown	41324	1	Little	20
428.7866666666667	0	n/a	257273	KeyDown	41324	3	Middle	20
428.9116666666667	0	n/a	257348	KeyDown	41324	2	Ring	20
429.0583333333333	0	n/a	257436	KeyDown	41324	4	Index	20
429.2683333333334	0	n/a	257562	KeyDown	41324	4	Index	20
429.4233333333333	0	n/a	257655	KeyDown	41324	1	Little	20
429.6483333333334	0	n/a	257790	KeyDown	41324	3	Middle	20
429.7616666666667	0	n/a	257858	KeyDown	41324	2	Ring	20
429.9116666666667	0	n/a	257948	KeyDown	41324	4	Index	20
430.1016666666667	0	n/a	258062	KeyDown	41324	4	Index	20
430.2333333333333	0	n/a	258141	KeyDown	41324	1	Little	20
430.4466666666667	0	n/a	258269	KeyDown	41324	3	Middle	20
430.5316666666667	0	n/a	258320	KeyDown	41324	2	Ring	20
430.6866666666667	0	n/a	258413	KeyDown	41324	4	Index	20
430.8816666666667	0	n/a	258530	StopPractice	41324	n/a	n/a	20
430.8833333333334	0	n/a	258531	StartRest	XXXXX	n/a	n/a	20
440.9250000000000	0	n/a	264556	StopRest	XXXXX	n/a	n/a	20
440.9266666666667	0	UPPT001	264557	StartPractice	41324	n/a	n/a	21
442.7700000000000	0	n/a	265663	KeyDown	41324	4	Index	21
442.7883333333334	0	n/a	265674	KeyDown	41324	1	Little	21
443.3850000000000	0	n/a	266032	KeyDown	41324	3	Middle	21
443.5850000000000	0	n/a	266152	KeyDown	41324	2	Ring	21
443.7533333333334	0	n/a	266253	KeyDown	41324	4	Index	21
444.8283333333334	0	n/a	266898	KeyDown	41324	4	Index	21
444.9766666666667	0	n/a	266987	KeyDown	41324	3	Middle	21
445.1383333333334	0	n/a	267084	KeyDown	41324	2	Ring	21
445.3083333333333	0	n/a	267186	KeyDown	41324	1	Little	21
445.7100000000000	0	n/a	267427	KeyDown	41324	4	Index	21
445.9900000000000	0	n/a	267595	KeyDown	41324	1	Little	21
446.2033333333334	0	n/a	267723	KeyDown	41324	3	Middle	21
446.3783333333334	0	n/a	267828	KeyDown	41324	2	Ring	21
446.7433333333333	0	n/a	268047	KeyDown	41324	4	Index	21
446.9733333333334	0	n/a	268185	KeyDown	41324	4	Index	21
447.1150000000000	0	n/a	268270	KeyDown	41324	1	Little	21
447.2800000000000	0	n/a	268369	KeyDown	41324	3	Middle	21
447.3966666666667	0	n/a	268439	KeyDown	41324	2	Ring	21
447.5266666666667	0	n/a	268517	KeyDown	41324	4	Index	21
447.7033333333334	0	n/a	268623	KeyDown	41324	4	Index	21
447.8400000000000	0	n/a	268705	KeyDown	41324	1	Little	21
447.9516666666667	0	n/a	268772	KeyDown	41324	3	Middle	21
448.2283333333334	0	n/a	268938	KeyDown	41324	2	Ring	21
448.4083333333334	0	n/a	269046	KeyDown	41324	4	Index	21
448.6183333333333	0	n/a	269172	KeyDown	41324	4	Index	21
448.8283333333334	0	n/a	269298	KeyDown	41324	1	Little	21
449.1683333333334	0	n/a	269502	KeyDown	41324	3	Middle	21
449.3083333333333	0	n/a	269586	KeyDown	41324	2	Ring	21
449.4433333333334	0	n/a	269667	KeyDown	41324	4	Index	21
449.6450000000000	0	n/a	269788	KeyDown	41324	4	Index	21
449.7500000000001	0	n/a	269851	KeyDown	41324	1	Little	21
449.9083333333334	0	n/a	269946	KeyDown	41324	3	Middle	21
450.0266666666667	0	n/a	270017	KeyDown	41324	2	Ring	21
450.2300000000000	0	n/a	270139	KeyDown	41324	4	Index	21
450.4266666666667	0	n/a	270257	KeyDown	41324	4	Index	21
450.5650000000001	0	n/a	270340	KeyDown	41324	1	Little	21
450.7766666666667	0	n/a	270467	KeyDown	41324	3	Middle	21
450.9000000000000	0	n/a	270541	KeyDown	41324	2	Ring	21
450.9733333333334	0	n/a	270585	StopPractice	41324	n/a	n/a	21
450.9750000000000	0	n/a	270586	StartRest	XXXXX	n/a	n/a	21
461.0000000000001	0	n/a	276601	StopRest	XXXXX	n/a	n/a	21
461.0016666666667	0	UPPT001	276602	StartPractice	41324	n/a	n/a	22
461.5800000000000	0	n/a	276949	KeyDown	41324	4	Index	22
461.7050000000000	0	n/a	277024	KeyDown	41324	1	Little	22
461.8700000000000	0	n/a	277123	KeyDown	41324	3	Middle	22
461.9683333333334	0	n/a	277182	KeyDown	41324	2	Ring	22
462.1033333333334	0	n/a	277263	KeyDown	41324	4	Index	22
462.2733333333334	0	n/a	277365	KeyDown	41324	4	Index	22
462.4033333333334	0	n/a	277443	KeyDown	41324	1	Little	22
462.5466666666667	0	n/a	277529	KeyDown	41324	3	Middle	22
462.6450000000000	0	n/a	277588	KeyDown	41324	2	Ring	22
462.7833333333334	0	n/a	277671	KeyDown	41324	4	Index	22
462.9600000000000	0	n/a	277777	KeyDown	41324	4	Index	22
463.0783333333334	0	n/a	277848	KeyDown	41324	1	Little	22
463.2416666666667	0	n/a	277946	KeyDown	41324	3	Middle	22
463.3583333333333	0	n/a	278016	KeyDown	41324	2	Ring	22
463.4983333333333	0	n/a	278100	KeyDown	41324	4	Index	22
463.6850000000000	0	n/a	278212	KeyDown	41324	4	Index	22
463.8133333333334	0	n/a	278289	KeyDown	41324	1	Little	22
463.9883333333333	0	n/a	278394	KeyDown	41324	3	Middle	22
464.1033333333334	0	n/a	278463	KeyDown	41324	2	Ring	22
464.2683333333334	0	n/a	278562	KeyDown	41324	4	Index	22
464.4833333333333	0	n/a	278691	KeyDown	41324	4	Index	22
464.6250000000001	0	n/a	278776	KeyDown	41324	1	Little	22
464.8983333333334	0	n/a	278940	KeyDown	41324	3	Middle	22
465.0316666666667	0	n/a	279020	KeyDown	41324	2	Ring	22
465.2033333333334	0	n/a	279123	KeyDown	41324	4	Index	22
465.4133333333334	0	n/a	279249	KeyDown	41324	4	Index	22
465.5766666666667	0	n/a	279347	KeyDown	41324	1	Little	22
465.8000000000000	0	n/a	279481	KeyDown	41324	3	Middle	22
465.9066666666667	0	n/a	279545	KeyDown	41324	2	Ring	22
466.0816666666667	0	n/a	279650	KeyDown	41324	4	Index	22
466.3200000000001	0	n/a	279793	KeyDown	41324	4	Index	22
466.6483333333334	0	n/a	279990	KeyDown	41324	1	Little	22
467.0566666666667	0	n/a	280235	KeyDown	41324	3	Middle	22
467.1783333333333	0	n/a	280308	KeyDown	41324	2	Ring	22
467.3250000000000	0	n/a	280396	KeyDown	41324	4	Index	22
467.5083333333334	0	n/a	280506	KeyDown	41324	4	Index	22
467.6383333333334	0	n/a	280584	KeyDown	41324	1	Little	22
467.8033333333333	0	n/a	280683	KeyDown	41324	3	Middle	22
467.8950000000000	0	n/a	280738	KeyDown	41324	2	Ring	22
468.0550000000000	0	n/a	280834	KeyDown	41324	4	Index	22
468.2716666666667	0	n/a	280964	KeyDown	41324	4	Index	22
468.4166666666667	0	n/a	281051	KeyDown	41324	1	Little	22
468.5716666666667	0	n/a	281144	KeyDown	41324	3	Middle	22
468.7233333333334	0	n/a	281235	KeyDown	41324	1	Little	22
468.7983333333333	0	n/a	281280	KeyDown	41324	2	Ring	22
469.3183333333334	0	n/a	281592	KeyDown	41324	4	Index	22
469.5500000000000	0	n/a	281731	KeyDown	41324	4	Index	22
469.6833333333333	0	n/a	281811	KeyDown	41324	1	Little	22
469.8550000000000	0	n/a	281914	KeyDown	41324	3	Middle	22
469.9650000000000	0	n/a	281980	KeyDown	41324	2	Ring	22
470.1033333333334	0	n/a	282063	KeyDown	41324	4	Index	22
470.3066666666667	0	n/a	282185	KeyDown	41324	4	Index	22
470.5233333333334	0	n/a	282315	KeyDown	41324	1	Little	22
470.9900000000000	0	n/a	282595	KeyDown	41324	3	Middle	22
471.0483333333333	0	n/a	282630	StopPractice	41324	n/a	n/a	22
471.0500000000000	0	n/a	282631	StartRest	XXXXX	n/a	n/a	22
481.0916666666667	0	n/a	288656	StopRest	XXXXX	n/a	n/a	22
481.0933333333334	0	UPPT001	288657	StartPractice	41324	n/a	n/a	23
481.8716666666667	0	n/a	289124	KeyDown	41324	4	Index	23
482.0166666666667	0	n/a	289211	KeyDown	41324	1	Little	23
482.1916666666667	0	n/a	289316	KeyDown	41324	3	Middle	23
482.3066666666667	0	n/a	289385	KeyDown	41324	2	Ring	23
482.4383333333334	0	n/a	289464	KeyDown	41324	4	Index	23
482.6133333333333	0	n/a	289569	KeyDown	41324	4	Index	23
482.7333333333333	0	n/a	289641	KeyDown	41324	1	Little	23
482.8933333333334	0	n/a	289737	KeyDown	41324	3	Middle	23
483.0166666666667	0	n/a	289811	KeyDown	41324	2	Ring	23
483.1433333333334	0	n/a	289887	KeyDown	41324	4	Index	23
483.3350000000000	0	n/a	290002	KeyDown	41324	4	Index	23
483.4566666666667	0	n/a	290075	KeyDown	41324	1	Little	23
483.6150000000000	0	n/a	290170	KeyDown	41324	3	Middle	23
483.7216666666667	0	n/a	290234	KeyDown	41324	2	Ring	23
483.8583333333333	0	n/a	290316	KeyDown	41324	4	Index	23
484.0550000000000	0	n/a	290434	KeyDown	41324	4	Index	23
484.1900000000001	0	n/a	290515	KeyDown	41324	1	Little	23
484.3583333333333	0	n/a	290616	KeyDown	41324	3	Middle	23
484.4716666666667	0	n/a	290684	KeyDown	41324	2	Ring	23
484.6166666666667	0	n/a	290771	KeyDown	41324	4	Index	23
484.8016666666667	0	n/a	290882	KeyDown	41324	4	Index	23
484.9300000000000	0	n/a	290959	KeyDown	41324	1	Little	23
485.1116666666667	0	n/a	291068	KeyDown	41324	3	Middle	23
485.2350000000000	0	n/a	291142	KeyDown	41324	2	Ring	23
485.3833333333334	0	n/a	291231	KeyDown	41324	4	Index	23
485.6000000000000	0	n/a	291361	KeyDown	41324	4	Index	23
485.7716666666667	0	n/a	291464	KeyDown	41324	1	Little	23
485.9966666666667	0	n/a	291599	KeyDown	41324	3	Middle	23
486.1250000000001	0	n/a	291676	KeyDown	41324	2	Ring	23
486.2983333333333	0	n/a	291780	KeyDown	41324	4	Index	23
486.5050000000001	0	n/a	291904	KeyDown	41324	4	Index	23
486.6383333333334	0	n/a	291984	KeyDown	41324	1	Little	23
486.8150000000001	0	n/a	292090	KeyDown	41324	3	Middle	23
486.9100000000000	0	n/a	292147	KeyDown	41324	2	Ring	23
487.0816666666667	0	n/a	292250	KeyDown	41324	4	Index	23
487.2850000000000	0	n/a	292372	KeyDown	41324	4	Index	23
487.4216666666667	0	n/a	292454	KeyDown	41324	1	Little	23
487.6166666666667	0	n/a	292571	KeyDown	41324	3	Middle	23
487.7516666666667	0	n/a	292652	KeyDown	41324	2	Ring	23
487.9083333333334	0	n/a	292746	KeyDown	41324	4	Index	23
488.1216666666667	0	n/a	292874	KeyDown	41324	4	Index	23
488.2766666666667	0	n/a	292967	KeyDown	41324	1	Little	23
488.4366666666667	0	n/a	293063	KeyDown	41324	3	Middle	23
488.5516666666667	0	n/a	293132	KeyDown	41324	2	Ring	23
488.7033333333334	0	n/a	293223	KeyDown	41324	4	Index	23
488.9000000000000	0	n/a	293341	KeyDown	41324	4	Index	23
489.0500000000000	0	n/a	293431	KeyDown	41324	1	Little	23
489.1966666666667	0	n/a	293519	KeyDown	41324	3	Middle	23
489.3200000000001	0	n/a	293593	KeyDown	41324	2	Ring	23
489.4716666666667	0	n/a	293684	KeyDown	41324	4	Index	23
489.6700000000000	0	n/a	293803	KeyDown	41324	4	Index	23
489.8200000000001	0	n/a	293893	KeyDown	41324	1	Little	23
490.0183333333334	0	n/a	294012	KeyDown	41324	2	Ring	23
490.0766666666667	0	n/a	294047	KeyDown	41324	3	Middle	23
490.2783333333334	0	n/a	294168	KeyDown	41324	2	Ring	23
490.4450000000001	0	n/a	294268	KeyDown	41324	4	Index	23
490.6600000000000	0	n/a	294397	KeyDown	41324	4	Index	23
490.7900000000000	0	n/a	294475	KeyDown	41324	1	Little	23
490.9916666666667	0	n/a	294596	KeyDown	41324	3	Middle	23
491.1400000000000	0	n/a	294685	StopPractice	41324	n/a	n/a	23
491.1416666666667	0	n/a	294686	StartRest	XXXXX	n/a	n/a	23
501.1833333333333	0	n/a	300711	StopRest	XXXXX	n/a	n/a	23
501.1850000000001	0	UPPT001	300712	StartPractice	41324	n/a	n/a	24
501.8083333333333	0	n/a	301086	KeyDown	41324	4	Index	24
501.9350000000001	0	n/a	301162	KeyDown	41324	1	Little	24
502.0966666666667	0	n/a	301259	KeyDown	41324	3	Middle	24
502.2016666666667	0	n/a	301322	KeyDown	41324	2	Ring	24
502.3416666666667	0	n/a	301406	KeyDown	41324	4	Index	24
502.5366666666667	0	n/a	301523	KeyDown	41324	4	Index	24
502.6433333333334	0	n/a	301587	KeyDown	41324	1	Little	24
502.8116666666667	0	n/a	301688	KeyDown	41324	3	Middle	24
502.9100000000000	0	n/a	301747	KeyDown	41324	2	Ring	24
503.0450000000000	0	n/a	301828	KeyDown	41324	4	Index	24
503.2183333333334	0	n/a	301932	KeyDown	41324	4	Index	24
503.3550000000000	0	n/a	302014	KeyDown	41324	1	Little	24
503.5216666666667	0	n/a	302114	KeyDown	41324	3	Middle	24
503.6266666666667	0	n/a	302177	KeyDown	41324	2	Ring	24
503.7800000000000	0	n/a	302269	KeyDown	41324	4	Index	24
503.9716666666667	0	n/a	302384	KeyDown	41324	4	Index	24
504.1016666666667	0	n/a	302462	KeyDown	41324	1	Little	24
504.2733333333334	0	n/a	302565	KeyDown	41324	3	Middle	24
504.3700000000000	0	n/a	302623	KeyDown	41324	2	Ring	24
504.5083333333334	0	n/a	302706	KeyDown	41324	4	Index	24
504.7066666666667	0	n/a	302825	KeyDown	41324	4	Index	24
504.8333333333334	0	n/a	302901	KeyDown	41324	1	Little	24
504.9866666666667	0	n/a	302993	KeyDown	41324	3	Middle	24
505.1033333333334	0	n/a	303063	KeyDown	41324	2	Ring	24
505.2516666666667	0	n/a	303152	KeyDown	41324	4	Index	24
505.4550000000000	0	n/a	303274	KeyDown	41324	4	Index	24
505.5916666666667	0	n/a	303356	KeyDown	41324	1	Little	24
505.7483333333334	0	n/a	303450	KeyDown	41324	3	Middle	24
505.8583333333333	0	n/a	303516	KeyDown	41324	2	Ring	24
506.0083333333334	0	n/a	303606	KeyDown	41324	4	Index	24
506.2083333333334	0	n/a	303726	KeyDown	41324	4	Index	24
506.3400000000000	0	n/a	303805	KeyDown	41324	1	Little	24
506.4883333333333	0	n/a	303894	KeyDown	41324	3	Middle	24
506.6050000000000	0	n/a	303964	KeyDown	41324	2	Ring	24
506.7883333333334	0	n/a	304074	KeyDown	41324	4	Index	24
507.0166666666667	0	n/a	304211	KeyDown	41324	4	Index	24
507.2883333333334	0	n/a	304374	KeyDown	41324	2	Ring	24
507.9933333333333	0	n/a	304797	KeyDown	41324	2	Ring	24
508.3383333333334	0	n/a	305004	KeyDown	41324	4	Index	24
508.5183333333334	0	n/a	305112	KeyDown	41324	1	Little	24
508.6950000000001	0	n/a	305218	KeyDown	41324	3	Middle	24
508.8266666666667	0	n/a	305297	KeyDown	41324	2	Ring	24
508.9866666666667	0	n/a	305393	KeyDown	41324	4	Index	24
509.1900000000001	0	n/a	305515	KeyDown	41324	4	Index	24
509.3383333333334	0	n/a	305604	KeyDown	41324	1	Little	24
509.5133333333334	0	n/a	305709	KeyDown	41324	3	Middle	24
509.5966666666667	0	n/a	305759	KeyDown	41324	2	Ring	24
509.7666666666667	0	n/a	305861	KeyDown	41324	4	Index	24
509.9983333333334	0	n/a	306000	KeyDown	41324	4	Index	24
510.1650000000000	0	n/a	306100	KeyDown	41324	1	Little	24
510.3716666666667	0	n/a	306224	KeyDown	41324	3	Middle	24
510.4716666666667	0	n/a	306284	KeyDown	41324	2	Ring	24
510.6383333333334	0	n/a	306384	KeyDown	41324	4	Index	24
510.8966666666667	0	n/a	306539	KeyDown	41324	4	Index	24
511.0433333333334	0	n/a	306627	KeyDown	41324	1	Little	24
511.2316666666667	0	n/a	306740	StopPractice	41324	n/a	n/a	24
511.2333333333333	0	n/a	306741	StartRest	XXXXX	n/a	n/a	24
521.2733333333333	0	n/a	312765	StopRest	XXXXX	n/a	n/a	24
521.2750000000000	0	UPPT001	312766	StartPractice	41324	n/a	n/a	25
522.1716666666667	0	n/a	313304	KeyDown	41324	4	Index	25
522.3433333333334	0	n/a	313407	KeyDown	41324	1	Little	25
522.5000000000000	0	n/a	313501	KeyDown	41324	3	Middle	25
522.6283333333333	0	n/a	313578	KeyDown	41324	2	Ring	25
522.7750000000000	0	n/a	313666	KeyDown	41324	4	Index	25
522.9916666666667	0	n/a	313796	KeyDown	41324	4	Index	25
523.0833333333334	0	n/a	313851	KeyDown	41324	1	Little	25
523.2366666666667	0	n/a	313943	KeyDown	41324	3	Middle	25
523.3483333333334	0	n/a	314010	KeyDown	41324	2	Ring	25
523.5083333333333	0	n/a	314106	KeyDown	41324	4	Index	25
523.7516666666667	0	n/a	314252	KeyDown	41324	4	Index	25
523.8966666666666	0	n/a	314339	KeyDown	41324	1	Little	25
524.0583333333334	0	n/a	314436	KeyDown	41324	3	Middle	25
524.1666666666667	0	n/a	314501	KeyDown	41324	2	Ring	25
524.2933333333334	0	n/a	314577	KeyDown	41324	4	Index	25
524.4883333333333	0	n/a	314694	KeyDown	41324	4	Index	25
524.6350000000000	0	n/a	314782	KeyDown	41324	1	Little	25
524.7766666666668	0	n/a	314867	KeyDown	41324	3	Middle	25
524.8916666666667	0	n/a	314936	KeyDown	41324	2	Ring	25
525.0283333333334	0	n/a	315018	KeyDown	41324	4	Index	25
525.2416666666667	0	n/a	315146	KeyDown	41324	4	Index	25
525.3566666666667	0	n/a	315215	KeyDown	41324	1	Little	25
525.5066666666667	0	n/a	315305	KeyDown	41324	3	Middle	25
525.6116666666667	0	n/a	315368	KeyDown	41324	2	Ring	25
525.7566666666667	0	n/a	315455	KeyDown	41324	4	Index	25
525.9633333333334	0	n/a	315579	KeyDown	41324	4	Index	25
526.1016666666667	0	n/a	315662	KeyDown	41324	1	Little	25
526.2316666666667	0	n/a	315740	KeyDown	41324	3	Middle	25
526.3433333333334	0	n/a	315807	KeyDown	41324	2	Ring	25
526.4833333333333	0	n/a	315891	KeyDown	41324	4	Index	25
526.6933333333334	0	n/a	316017	KeyDown	41324	4	Index	25
526.8216666666667	0	n/a	316094	KeyDown	41324	1	Little	25
526.9633333333334	0	n/a	316179	KeyDown	41324	3	Middle	25
527.0850000000000	0	n/a	316252	KeyDown	41324	2	Ring	25
527.2316666666667	0	n/a	316340	KeyDown	41324	4	Index	25
527.4583333333334	0	n/a	316476	KeyDown	41324	4	Index	25
527.5966666666667	0	n/a	316559	KeyDown	41324	1	Little	25
527.7433333333333	0	n/a	316647	KeyDown	41324	3	Middle	25
527.8616666666667	0	n/a	316718	KeyDown	41324	2	Ring	25
527.9933333333333	0	n/a	316797	KeyDown	41324	4	Index	25
528.2166666666667	0	n/a	316931	KeyDown	41324	4	Index	25
528.3283333333334	0	n/a	316998	KeyDown	41324	1	Little	25
528.5283333333334	0	n/a	317118	KeyDown	41324	3	Middle	25
528.6433333333333	0	n/a	317187	KeyDown	41324	2	Ring	25
528.7666666666667	0	n/a	317261	KeyDown	41324	4	Index	25
528.9933333333333	0	n/a	317397	KeyDown	41324	4	Index	25
529.1450000000000	0	n/a	317488	KeyDown	41324	1	Little	25
529.3833333333333	0	n/a	317631	KeyDown	41324	3	Middle	25
529.5516666666667	0	n/a	317732	KeyDown	41324	3	Middle	25
529.7216666666667	0	n/a	317834	KeyDown	41324	2	Ring	25
529.9016666666668	0	n/a	317942	KeyDown	41324	4	Index	25
530.1183333333333	0	n/a	318072	KeyDown	41324	4	Index	25
530.2966666666667	0	n/a	318179	KeyDown	41324	1	Little	25
530.4683333333334	0	n/a	318282	KeyDown	41324	3	Middle	25
530.6033333333334	0	n/a	318363	KeyDown	41324	2	Ring	25
530.7850000000001	0	n/a	318472	KeyDown	41324	4	Index	25
531.1216666666667	0	n/a	318674	KeyDown	41324	4	Index	25
531.2950000000001	0	n/a	318778	KeyDown	41324	1	Little	25
531.3216666666667	0	n/a	318794	StopPractice	41324	n/a	n/a	25
531.3233333333334	0	n/a	318795	StartRest	XXXXX	n/a	n/a	25
541.3666666666667	0	n/a	324821	StopRest	XXXXX	n/a	n/a	25
541.3683333333333	0	UPPT001	324822	StartPractice	41324	n/a	n/a	26
542.3750000000000	0	n/a	325426	KeyDown	41324	4	Index	26
542.5350000000001	0	n/a	325522	KeyDown	41324	1	Little	26
542.6516666666668	0	n/a	325592	KeyDown	41324	3	Middle	26
542.7666666666667	0	n/a	325661	KeyDown	41324	2	Ring	26
542.9083333333334	0	n/a	325746	KeyDown	41324	4	Index	26
543.1000000000000	0	n/a	325861	KeyDown	41324	4	Index	26
543.2150000000000	0	n/a	325930	KeyDown	41324	1	Little	26
543.3416666666667	0	n/a	326006	KeyDown	41324	3	Middle	26
543.4600000000000	0	n/a	326077	KeyDown	41324	2	Ring	26
543.5883333333334	0	n/a	326154	KeyDown	41324	4	Index	26
543.7766666666668	0	n/a	326267	KeyDown	41324	4	Index	26
543.9016666666668	0	n/a	326342	KeyDown	41324	1	Little	26
544.0366666666667	0	n/a	326423	KeyDown	41324	3	Middle	26
544.1550000000001	0	n/a	326494	KeyDown	41324	2	Ring	26
544.2683333333333	0	n/a	326562	KeyDown	41324	4	Index	26
544.4716666666667	0	n/a	326684	KeyDown	41324	4	Index	26
544.5950000000000	0	n/a	326758	KeyDown	41324	1	Little	26
544.7416666666667	0	n/a	326846	KeyDown	41324	3	Middle	26
544.8616666666667	0	n/a	326918	KeyDown	41324	2	Ring	26
544.9850000000000	0	n/a	326992	KeyDown	41324	4	Index	26
545.1833333333334	0	n/a	327111	KeyDown	41324	4	Index	26
545.3333333333334	0	n/a	327201	KeyDown	41324	1	Little	26
545.6400000000000	0	n/a	327385	KeyDown	41324	3	Middle	26
545.8500000000000	0	n/a	327511	KeyDown	41324	2	Ring	26
546.0100000000000	0	n/a	327607	KeyDown	41324	4	Index	26
546.2100000000000	0	n/a	327727	KeyDown	41324	4	Index	26
546.3500000000000	0	n/a	327811	KeyDown	41324	1	Little	26
546.4766666666667	0	n/a	327887	KeyDown	41324	3	Middle	26
546.5866666666667	0	n/a	327953	KeyDown	41324	2	Ring	26
546.7400000000000	0	n/a	328045	KeyDown	41324	4	Index	26
546.9550000000000	0	n/a	328174	KeyDown	41324	4	Index	26
547.0816666666667	0	n/a	328250	KeyDown	41324	1	Little	26
547.2050000000000	0	n/a	328324	KeyDown	41324	3	Middle	26
547.3150000000001	0	n/a	328390	KeyDown	41324	2	Ring	26
547.4716666666667	0	n/a	328484	KeyDown	41324	4	Index	26
547.6783333333334	0	n/a	328608	KeyDown	41324	4	Index	26
547.8083333333334	0	n/a	328686	KeyDown	41324	1	Little	26
547.9483333333334	0	n/a	328770	KeyDown	41324	3	Middle	26
548.1050000000000	0	n/a	328864	KeyDown	41324	1	Little	26
548.2716666666666	0	n/a	328964	KeyDown	41324	2	Ring	26
548.5116666666667	0	n/a	329108	KeyDown	41324	4	Index	26
548.8033333333334	0	n/a	329283	KeyDown	41324	4	Index	26
548.9766666666667	0	n/a	329387	KeyDown	41324	1	Little	26
549.1416666666667	0	n/a	329486	KeyDown	41324	3	Middle	26
549.2850000000001	0	n/a	329572	KeyDown	41324	2	Ring	26
549.6233333333333	0	n/a	329775	KeyDown	41324	4	Index	26
549.8700000000000	0	n/a	329923	KeyDown	41324	4	Index	26
550.0666666666667	0	n/a	330041	KeyDown	41324	1	Little	26
550.2033333333334	0	n/a	330123	KeyDown	41324	3	Middle	26
550.3266666666667	0	n/a	330197	KeyDown	41324	2	Ring	26
550.4833333333333	0	n/a	330291	KeyDown	41324	4	Index	26
550.6966666666667	0	n/a	330419	KeyDown	41324	4	Index	26
550.8366666666667	0	n/a	330503	KeyDown	41324	1	Little	26
550.9933333333333	0	n/a	330597	KeyDown	41324	3	Middle	26
551.1233333333333	0	n/a	330675	KeyDown	41324	2	Ring	26
551.2516666666667	0	n/a	330752	KeyDown	41324	3	Middle	26
551.3666666666667	0	n/a	330821	KeyDown	41324	1	Little	26
551.4150000000001	0	n/a	330850	StopPractice	41324	n/a	n/a	26
551.4166666666667	0	n/a	330851	StartRest	XXXXX	n/a	n/a	26
561.4566666666667	0	n/a	336875	StopRest	XXXXX	n/a	n/a	26
561.4583333333334	0	UPPT001	336876	StartPractice	41324	n/a	n/a	27
562.3816666666667	0	n/a	337430	KeyDown	41324	4	Index	27
562.5416666666667	0	n/a	337526	KeyDown	41324	1	Little	27
562.6916666666667	0	n/a	337616	KeyDown	41324	3	Middle	27
562.7866666666667	0	n/a	337673	KeyDown	41324	2	Ring	27
562.9283333333334	0	n/a	337758	KeyDown	41324	4	Index	27
563.1333333333333	0	n/a	337881	KeyDown	41324	4	Index	27
563.2466666666667	0	n/a	337949	KeyDown	41324	1	Little	27
563.3950000000000	0	n/a	338038	KeyDown	41324	3	Middle	27
563.5133333333333	0	n/a	338109	KeyDown	41324	2	Ring	27
563.6350000000000	0	n/a	338182	KeyDown	41324	4	Index	27
563.8900000000000	0	n/a	338335	KeyDown	41324	4	Index	27
564.0466666666667	0	n/a	338429	KeyDown	41324	1	Little	27
564.2316666666667	0	n/a	338540	KeyDown	41324	3	Middle	27
564.3283333333334	0	n/a	338598	KeyDown	41324	2	Ring	27
564.4716666666667	0	n/a	338684	KeyDown	41324	4	Index	27
564.6950000000001	0	n/a	338818	KeyDown	41324	4	Index	27
564.7950000000001	0	n/a	338878	KeyDown	41324	1	Little	27
564.9433333333334	0	n/a	338967	KeyDown	41324	3	Middle	27
565.0666666666667	0	n/a	339041	KeyDown	41324	2	Ring	27
565.2250000000000	0	n/a	339136	KeyDown	41324	4	Index	27
565.4266666666667	0	n/a	339257	KeyDown	41324	4	Index	27
565.5783333333334	0	n/a	339348	KeyDown	41324	1	Little	27
565.6950000000001	0	n/a	339418	KeyDown	41324	3	Middle	27
565.8066666666667	0	n/a	339485	KeyDown	41324	2	Ring	27
565.9416666666667	0	n/a	339566	KeyDown	41324	4	Index	27
566.1550000000001	0	n/a	339694	KeyDown	41324	4	Index	27
566.2916666666667	0	n/a	339776	KeyDown	41324	1	Little	27
566.4400000000001	0	n/a	339865	KeyDown	41324	3	Middle	27
566.5533333333334	0	n/a	339933	KeyDown	41324	2	Ring	27
566.7016666666667	0	n/a	340022	KeyDown	41324	4	Index	27
566.8966666666666	0	n/a	340139	KeyDown	41324	4	Index	27
567.0350000000001	0	n/a	340222	KeyDown	41324	1	Little	27
567.1766666666667	0	n/a	340307	KeyDown	41324	3	Middle	27
567.3116666666667	0	n/a	340388	KeyDown	41324	2	Ring	27
567.4650000000000	0	n/a	340480	KeyDown	41324	4	Index	27
567.6800000000001	0	n/a	340609	KeyDown	41324	4	Index	27
567.8350000000000	0	n/a	340702	KeyDown	41324	1	Little	27
567.9666666666667	0	n/a	340781	KeyDown	41324	3	Middle	27
568.0800000000000	0	n/a	340849	KeyDown	41324	2	Ring	27
568.2150000000000	0	n/a	340930	KeyDown	41324	4	Index	27
568.4350000000001	0	n/a	341062	KeyDown	41324	4	Index	27
568.5816666666667	0	n/a	341150	KeyDown	41324	1	Little	27
568.7216666666667	0	n/a	341234	KeyDown	41324	3	Middle	27
568.8283333333334	0	n/a	341298	KeyDown	41324	2	Ring	27
568.9966666666667	0	n/a	341399	KeyDown	41324	4	Index	27
569.2450000000000	0	n/a	341548	KeyDown	41324	4	Index	27
569.4050000000001	0	n/a	341644	KeyDown	41324	1	Little	27
569.5316666666668	0	n/a	341720	KeyDown	41324	3	Middle	27
569.6133333333333	0	n/a	341769	KeyDown	41324	2	Ring	27
569.7666666666667	0	n/a	341861	KeyDown	41324	3	Middle	27
569.8250000000000	0	n/a	341896	KeyDown	41324	4	Index	27
570.0716666666667	0	n/a	342044	KeyDown	41324	4	Index	27
570.2066666666667	0	n/a	342125	KeyDown	41324	1	Little	27
570.3800000000000	0	n/a	342229	KeyDown	41324	3	Middle	27
570.5050000000000	0	n/a	342304	KeyDown	41324	2	Ring	27
570.6516666666668	0	n/a	342392	KeyDown	41324	4	Index	27
570.8633333333333	0	n/a	342519	KeyDown	41324	4	Index	27
571.0250000000001	0	n/a	342616	KeyDown	41324	1	Little	27
571.1566666666668	0	n/a	342695	KeyDown	41324	3	Middle	27
571.2766666666668	0	n/a	342767	KeyDown	41324	2	Ring	27
571.4450000000001	0	n/a	342868	KeyDown	41324	4	Index	27
571.5050000000000	0	n/a	342904	StopPractice	41324	n/a	n/a	27
571.5066666666667	0	n/a	342905	StartRest	XXXXX	n/a	n/a	27
581.5500000000001	0	n/a	348931	StopRest	XXXXX	n/a	n/a	27
581.5516666666667	0	UPPT001	348932	StartPractice	41324	n/a	n/a	28
582.5600000000001	0	n/a	349537	KeyDown	41324	4	Index	28
582.7550000000000	0	n/a	349654	KeyDown	41324	1	Little	28
582.8400000000000	0	n/a	349705	KeyDown	41324	3	Middle	28
583.0016666666667	0	n/a	349802	KeyDown	41324	2	Ring	28
583.1883333333334	0	n/a	349914	KeyDown	41324	4	Index	28
583.5233333333334	0	n/a	350115	KeyDown	41324	4	Index	28
583.7500000000000	0	n/a	350251	KeyDown	41324	1	Little	28
583.9100000000001	0	n/a	350347	KeyDown	41324	3	Middle	28
584.0183333333333	0	n/a	350412	KeyDown	41324	2	Ring	28
584.1500000000001	0	n/a	350491	KeyDown	41324	4	Index	28
584.3400000000000	0	n/a	350605	KeyDown	41324	4	Index	28
584.4833333333333	0	n/a	350691	KeyDown	41324	1	Little	28
584.6033333333334	0	n/a	350763	KeyDown	41324	3	Middle	28
584.7183333333334	0	n/a	350832	KeyDown	41324	2	Ring	28
584.8316666666667	0	n/a	350900	KeyDown	41324	4	Index	28
585.0283333333334	0	n/a	351018	KeyDown	41324	4	Index	28
585.1533333333334	0	n/a	351093	KeyDown	41324	1	Little	28
585.3200000000001	0	n/a	351193	KeyDown	41324	3	Middle	28
585.4383333333334	0	n/a	351264	KeyDown	41324	2	Ring	28
585.5800000000000	0	n/a	351349	KeyDown	41324	4	Index	28
585.7966666666667	0	n/a	351479	KeyDown	41324	4	Index	28
585.9466666666667	0	n/a	351569	KeyDown	41324	1	Little	28
586.0916666666667	0	n/a	351656	KeyDown	41324	3	Middle	28
586.2133333333334	0	n/a	351729	KeyDown	41324	2	Ring	28
586.3700000000000	0	n/a	351823	KeyDown	41324	4	Index	28
586.5783333333334	0	n/a	351948	KeyDown	41324	4	Index	28
586.7200000000000	0	n/a	352033	KeyDown	41324	1	Little	28
586.8533333333334	0	n/a	352113	KeyDown	41324	3	Middle	28
586.9650000000000	0	n/a	352180	KeyDown	41324	2	Ring	28
587.1200000000000	0	n/a	352273	KeyDown	41324	4	Index	28
587.3700000000000	0	n/a	352423	KeyDown	41324	4	Index	28
587.4850000000000	0	n/a	352492	KeyDown	41324	1	Little	28
587.6433333333333	0	n/a	352587	KeyDown	41324	3	Middle	28
587.7750000000001	0	n/a	352666	KeyDown	41324	2	Ring	28
587.9300000000001	0	n/a	352759	KeyDown	41324	4	Index	28
588.1450000000000	0	n/a	352888	KeyDown	41324	4	Index	28
588.3033333333334	0	n/a	352983	KeyDown	41324	1	Little	28
588.4366666666667	0	n/a	353063	KeyDown	41324	3	Middle	28
588.5650000000001	0	n/a	353140	KeyDown	41324	2	Ring	28
588.7100000000000	0	n/a	353227	KeyDown	41324	4	Index	28
588.9350000000001	0	n/a	353362	KeyDown	41324	4	Index	28
589.0650000000001	0	n/a	353440	KeyDown	41324	1	Little	28
589.2050000000000	0	n/a	353524	KeyDown	41324	3	Middle	28
589.3233333333334	0	n/a	353595	KeyDown	41324	2	Ring	28
589.4916666666667	0	n/a	353696	KeyDown	41324	4	Index	28
589.7183333333334	0	n/a	353832	KeyDown	41324	4	Index	28
589.8566666666667	0	n/a	353915	KeyDown	41324	1	Little	28
590.0966666666667	0	n/a	354059	KeyDown	41324	3	Middle	28
590.3000000000001	0	n/a	354181	KeyDown	41324	2	Ring	28
590.7683333333333	0	n/a	354462	KeyDown	41324	4	Index	28
591.0450000000001	0	n/a	354628	KeyDown	41324	4	Index	28
591.2050000000000	0	n/a	354724	KeyDown	41324	1	Little	28
591.4050000000001	0	n/a	354844	KeyDown	41324	3	Middle	28
591.5133333333333	0	n/a	354909	KeyDown	41324	2	Ring	28
591.5983333333334	0	n/a	354960	StopPractice	41324	n/a	n/a	28
591.6000000000000	0	n/a	354961	StartRest	XXXXX	n/a	n/a	28
601.6400000000000	0	n/a	360985	StopRest	XXXXX	n/a	n/a	28
601.6416666666667	0	UPPT001	360986	StartPractice	41324	n/a	n/a	29
602.5183333333333	0	n/a	361512	KeyDown	41324	4	Index	29
602.6750000000001	0	n/a	361606	KeyDown	41324	1	Little	29
602.8183333333334	0	n/a	361692	KeyDown	41324	3	Middle	29
602.9450000000001	0	n/a	361768	KeyDown	41324	2	Ring	29
603.0583333333334	0	n/a	361836	KeyDown	41324	4	Index	29
603.2500000000000	0	n/a	361951	KeyDown	41324	4	Index	29
603.3750000000000	0	n/a	362026	KeyDown	41324	1	Little	29
603.5616666666667	0	n/a	362138	KeyDown	41324	3	Middle	29
603.6883333333334	0	n/a	362214	KeyDown	41324	2	Ring	29
603.8250000000000	0	n/a	362296	KeyDown	41324	4	Index	29
604.0300000000001	0	n/a	362419	KeyDown	41324	4	Index	29
604.1600000000001	0	n/a	362497	KeyDown	41324	1	Little	29
604.2950000000001	0	n/a	362578	KeyDown	41324	3	Middle	29
604.4200000000001	0	n/a	362653	KeyDown	41324	2	Ring	29
604.5483333333334	0	n/a	362730	KeyDown	41324	4	Index	29
604.7683333333333	0	n/a	362862	KeyDown	41324	4	Index	29
604.9050000000001	0	n/a	362944	KeyDown	41324	1	Little	29
605.1116666666667	0	n/a	363068	KeyDown	41324	3	Middle	29
605.2550000000000	0	n/a	363154	KeyDown	41324	2	Ring	29
605.3966666666668	0	n/a	363239	KeyDown	41324	4	Index	29
605.6000000000000	0	n/a	363361	KeyDown	41324	4	Index	29
605.7300000000000	0	n/a	363439	KeyDown	41324	1	Little	29
605.8716666666667	0	n/a	363524	KeyDown	41324	3	Middle	29
606.0016666666667	0	n/a	363602	KeyDown	41324	2	Ring	29
606.1266666666667	0	n/a	363677	KeyDown	41324	4	Index	29
606.3366666666667	0	n/a	363803	KeyDown	41324	4	Index	29
606.4533333333334	0	n/a	363873	KeyDown	41324	1	Little	29
606.7033333333334	0	n/a	364023	KeyDown	41324	3	Middle	29
606.8983333333334	0	n/a	364140	KeyDown	41324	2	Ring	29
607.0550000000001	0	n/a	364234	KeyDown	41324	4	Index	29
607.3383333333334	0	n/a	364404	KeyDown	41324	4	Index	29
607.4416666666667	0	n/a	364466	KeyDown	41324	2	Ring	29
608.0133333333333	0	n/a	364809	KeyDown	41324	2	Ring	29
608.2666666666667	0	n/a	364961	KeyDown	41324	4	Index	29
608.4750000000000	0	n/a	365086	KeyDown	41324	1	Little	29
608.7683333333333	0	n/a	365262	KeyDown	41324	4	Index	29
609.1300000000000	0	n/a	365479	KeyDown	41324	3	Middle	29
609.3033333333334	0	n/a	365583	KeyDown	41324	2	Ring	29
609.6100000000000	0	n/a	365767	KeyDown	41324	4	Index	29
610.2450000000000	0	n/a	366148	KeyDown	41324	1	Little	29
610.5250000000001	0	n/a	366316	KeyDown	41324	2	Ring	29
610.5400000000001	0	n/a	366325	KeyDown	41324	3	Middle	29
610.7933333333334	0	n/a	366477	KeyDown	41324	2	Ring	29
610.9616666666667	0	n/a	366578	KeyDown	41324	4	Index	29
611.1783333333334	0	n/a	366708	KeyDown	41324	4	Index	29
611.3183333333334	0	n/a	366792	KeyDown	41324	1	Little	29
611.5283333333334	0	n/a	366918	KeyDown	41324	3	Middle	29
611.6883333333334	0	n/a	367014	StopPractice	41324	n/a	n/a	29
611.6900000000001	0	n/a	367015	StartRest	XXXXX	n/a	n/a	29
621.7150000000000	0	n/a	373030	StopRest	XXXXX	n/a	n/a	29
621.7166666666667	0	UPPT001	373031	StartPractice	41324	n/a	n/a	30
622.8016666666667	0	n/a	373682	KeyDown	41324	4	Index	30
622.9716666666667	0	n/a	373784	KeyDown	41324	1	Little	30
623.1133333333333	0	n/a	373869	KeyDown	41324	3	Middle	30
623.2500000000000	0	n/a	373951	KeyDown	41324	2	Ring	30
623.3900000000000	0	n/a	374035	KeyDown	41324	4	Index	30
623.5900000000000	0	n/a	374155	KeyDown	41324	4	Index	30
623.7183333333334	0	n/a	374232	KeyDown	41324	1	Little	30
623.8866666666667	0	n/a	374333	KeyDown	41324	3	Middle	30
624.0083333333333	0	n/a	374406	KeyDown	41324	2	Ring	30
624.1683333333334	0	n/a	374502	KeyDown	41324	4	Index	30
624.4050000000001	0	n/a	374644	KeyDown	41324	4	Index	30
624.5666666666667	0	n/a	374741	KeyDown	41324	1	Little	30
624.7700000000001	0	n/a	374863	KeyDown	41324	3	Middle	30
624.9150000000001	0	n/a	374950	KeyDown	41324	2	Ring	30
625.1083333333333	0	n/a	375066	KeyDown	41324	4	Index	30
625.3316666666667	0	n/a	375200	KeyDown	41324	4	Index	30
625.4733333333334	0	n/a	375285	KeyDown	41324	1	Little	30
625.6500000000001	0	n/a	375391	KeyDown	41324	3	Middle	30
625.7983333333334	0	n/a	375480	KeyDown	41324	2	Ring	30
626.0800000000000	0	n/a	375649	KeyDown	41324	4	Index	30
626.3333333333334	0	n/a	375801	KeyDown	41324	4	Index	30
626.5133333333333	0	n/a	375909	KeyDown	41324	1	Little	30
626.6883333333334	0	n/a	376014	KeyDown	41324	3	Middle	30
626.8200000000001	0	n/a	376093	KeyDown	41324	2	Ring	30
626.9800000000000	0	n/a	376189	KeyDown	41324	4	Index	30
627.2300000000000	0	n/a	376339	KeyDown	41324	4	Index	30
627.3850000000000	0	n/a	376432	KeyDown	41324	1	Little	30
627.5600000000001	0	n/a	376537	KeyDown	41324	3	Middle	30
627.6833333333334	0	n/a	376611	KeyDown	41324	2	Ring	30
627.8233333333334	0	n/a	376695	KeyDown	41324	4	Index	30
628.0466666666667	0	n/a	376829	KeyDown	41324	4	Index	30
628.1883333333334	0	n/a	376914	KeyDown	41324	1	Little	30
628.3750000000000	0	n/a	377026	KeyDown	41324	3	Middle	30
628.4983333333333	0	n/a	377100	KeyDown	41324	2	Ring	30
628.6800000000001	0	n/a	377209	KeyDown	41324	4	Index	30
628.9383333333334	0	n/a	377364	KeyDown	41324	4	Index	30
629.1150000000000	0	n/a	377470	KeyDown	41324	1	Little	30
629.2883333333334	0	n/a	377574	KeyDown	41324	3	Middle	30
629.4633333333334	0	n/a	377679	KeyDown	41324	2	Ring	30
629.6666666666667	0	n/a	377801	KeyDown	41324	2	Ring	30
629.9216666666667	0	n/a	377954	KeyDown	41324	4	Index	30
630.2066666666667	0	n/a	378125	KeyDown	41324	4	Index	30
630.4583333333334	0	n/a	378276	KeyDown	41324	1	Little	30
630.9000000000001	0	n/a	378541	KeyDown	41324	3	Middle	30
631.0716666666667	0	n/a	378644	KeyDown	41324	2	Ring	30
631.2450000000000	0	n/a	378748	KeyDown	41324	4	Index	30
631.4533333333334	0	n/a	378873	KeyDown	41324	4	Index	30
631.6250000000000	0	n/a	378976	KeyDown	41324	1	Little	30
631.7633333333333	0	n/a	379059	StopPractice	41324	n/a	n/a	30
631.7650000000000	0	n/a	379060	StartRest	XXXXX	n/a	n/a	30
641.7900000000001	0	n/a	385075	StopRest	XXXXX	n/a	n/a	30
641.7916666666667	0	UPPT001	385076	StartPractice	41324	n/a	n/a	31
642.5733333333334	0	n/a	385545	KeyDown	41324	4	Index	31
642.7283333333334	0	n/a	385638	KeyDown	41324	1	Little	31
642.8666666666667	0	n/a	385721	KeyDown	41324	3	Middle	31
643.0016666666667	0	n/a	385802	KeyDown	41324	2	Ring	31
643.1150000000000	0	n/a	385870	KeyDown	41324	4	Index	31
643.3233333333334	0	n/a	385995	KeyDown	41324	4	Index	31
643.4266666666667	0	n/a	386057	KeyDown	41324	1	Little	31
643.5833333333334	0	n/a	386151	KeyDown	41324	3	Middle	31
643.7033333333334	0	n/a	386223	KeyDown	41324	2	Ring	31
643.8166666666667	0	n/a	386291	KeyDown	41324	4	Index	31
644.0083333333333	0	n/a	386406	KeyDown	41324	4	Index	31
644.1383333333333	0	n/a	386484	KeyDown	41324	1	Little	31
644.2683333333334	0	n/a	386562	KeyDown	41324	3	Middle	31
644.3966666666668	0	n/a	386639	KeyDown	41324	2	Ring	31
644.5333333333334	0	n/a	386721	KeyDown	41324	4	Index	31
644.7250000000000	0	n/a	386836	KeyDown	41324	4	Index	31
644.8500000000000	0	n/a	386911	KeyDown	41324	1	Little	31
645.0000000000000	0	n/a	387001	KeyDown	41324	3	Middle	31
645.1200000000000	0	n/a	387073	KeyDown	41324	2	Ring	31
645.2550000000000	0	n/a	387154	KeyDown	41324	4	Index	31
645.4450000000001	0	n/a	387268	KeyDown	41324	4	Index	31
645.5816666666667	0	n/a	387350	KeyDown	41324	1	Little	31
645.7016666666667	0	n/a	387422	KeyDown	41324	3	Middle	31
645.8216666666667	0	n/a	387494	KeyDown	41324	2	Ring	31
645.9550000000000	0	n/a	387574	KeyDown	41324	4	Index	31
646.1600000000001	0	n/a	387697	KeyDown	41324	4	Index	31
646.2700000000001	0	n/a	387763	KeyDown	41324	1	Little	31
646.4300000000001	0	n/a	387859	KeyDown	41324	3	Middle	31
646.5416666666667	0	n/a	387926	KeyDown	41324	2	Ring	31
646.6800000000001	0	n/a	388009	KeyDown	41324	4	Index	31
646.8700000000000	0	n/a	388123	KeyDown	41324	4	Index	31
647.0250000000001	0	n/a	388216	KeyDown	41324	1	Little	31
647.1750000000001	0	n/a	388306	KeyDown	41324	3	Middle	31
647.3050000000001	0	n/a	388384	KeyDown	41324	2	Ring	31
647.4683333333334	0	n/a	388482	KeyDown	41324	4	Index	31
647.6883333333334	0	n/a	388614	KeyDown	41324	4	Index	31
647.8666666666667	0	n/a	388721	KeyDown	41324	1	Little	31
648.0700000000001	0	n/a	388843	KeyDown	41324	3	Middle	31
648.2133333333334	0	n/a	388929	KeyDown	41324	2	Ring	31
648.3533333333334	0	n/a	389013	KeyDown	41324	4	Index	31
648.5400000000001	0	n/a	389125	KeyDown	41324	4	Index	31
648.7000000000000	0	n/a	389221	KeyDown	41324	1	Little	31
648.8400000000000	0	n/a	389305	KeyDown	41324	3	Middle	31
648.9716666666667	0	n/a	389384	KeyDown	41324	2	Ring	31
649.1116666666667	0	n/a	389468	KeyDown	41324	4	Index	31
649.3100000000001	0	n/a	389587	KeyDown	41324	4	Index	31
649.4300000000001	0	n/a	389659	KeyDown	41324	1	Little	31
649.5766666666667	0	n/a	389747	KeyDown	41324	3	Middle	31
649.7100000000000	0	n/a	389827	KeyDown	41324	2	Ring	31
649.8400000000000	0	n/a	389905	KeyDown	41324	4	Index	31
650.0483333333334	0	n/a	390030	KeyDown	41324	4	Index	31
650.1933333333334	0	n/a	390117	KeyDown	41324	1	Little	31
650.4183333333334	0	n/a	390252	KeyDown	41324	3	Middle	31
650.6483333333334	0	n/a	390390	KeyDown	41324	2	Ring	31
650.9900000000000	0	n/a	390595	KeyDown	41324	4	Index	31
651.2283333333334	0	n/a	390738	KeyDown	41324	4	Index	31
651.5000000000000	0	n/a	390901	KeyDown	41324	1	Little	31
651.8383333333334	0	n/a	391104	StopPractice	41324	n/a	n/a	31
651.8400000000000	0	n/a	391105	StartRest	XXXXX	n/a	n/a	31
661.8816666666667	0	n/a	397130	StopRest	XXXXX	n/a	n/a	31
661.8833333333333	0	UPPT001	397131	StartPractice	41324	n/a	n/a	32
662.6716666666667	0	n/a	397604	KeyDown	41324	4	Index	32
662.8316666666667	0	n/a	397700	KeyDown	41324	1	Little	32
662.9966666666667	0	n/a	397799	KeyDown	41324	3	Middle	32
663.1066666666667	0	n/a	397865	KeyDown	41324	2	Ring	32
663.2250000000000	0	n/a	397936	KeyDown	41324	4	Index	32
663.4100000000001	0	n/a	398047	KeyDown	41324	4	Index	32
663.5266666666668	0	n/a	398117	KeyDown	41324	1	Little	32
663.6600000000001	0	n/a	398197	KeyDown	41324	3	Middle	32
663.8016666666667	0	n/a	398282	KeyDown	41324	2	Ring	32
663.8933333333334	0	n/a	398337	KeyDown	41324	4	Index	32
664.2550000000000	0	n/a	398554	KeyDown	41324	4	Index	32
664.5866666666667	0	n/a	398753	KeyDown	41324	1	Little	32
664.7700000000001	0	n/a	398863	KeyDown	41324	3	Middle	32
664.9150000000001	0	n/a	398950	KeyDown	41324	2	Ring	32
665.0566666666667	0	n/a	399035	KeyDown	41324	4	Index	32
665.2583333333333	0	n/a	399156	KeyDown	41324	4	Index	32
665.4166666666667	0	n/a	399251	KeyDown	41324	1	Little	32
665.5666666666667	0	n/a	399341	KeyDown	41324	3	Middle	32
665.7050000000000	0	n/a	399424	KeyDown	41324	2	Ring	32
665.8500000000000	0	n/a	399511	KeyDown	41324	4	Index	32
666.1333333333333	0	n/a	399681	KeyDown	41324	4	Index	32
666.3216666666667	0	n/a	399794	KeyDown	41324	1	Little	32
666.5000000000000	0	n/a	399901	KeyDown	41324	3	Middle	32
666.6266666666667	0	n/a	399977	KeyDown	41324	2	Ring	32
666.7750000000001	0	n/a	400066	KeyDown	41324	4	Index	32
667.0516666666667	0	n/a	400232	KeyDown	41324	4	Index	32
667.3300000000000	0	n/a	400399	KeyDown	41324	1	Little	32
667.6483333333334	0	n/a	400590	KeyDown	41324	3	Middle	32
667.8150000000001	0	n/a	400690	KeyDown	41324	2	Ring	32
667.9483333333334	0	n/a	400770	KeyDown	41324	4	Index	32
668.1716666666667	0	n/a	400904	KeyDown	41324	4	Index	32
668.3016666666667	0	n/a	400982	KeyDown	41324	1	Little	32
668.4800000000000	0	n/a	401089	KeyDown	41324	3	Middle	32
668.6100000000000	0	n/a	401167	KeyDown	41324	2	Ring	32
668.7500000000000	0	n/a	401251	KeyDown	41324	4	Index	32
668.9466666666667	0	n/a	401369	KeyDown	41324	4	Index	32
669.0916666666667	0	n/a	401456	KeyDown	41324	1	Little	32
669.2466666666667	0	n/a	401549	KeyDown	41324	3	Middle	32
669.3700000000000	0	n/a	401623	KeyDown	41324	2	Ring	32
669.5100000000000	0	n/a	401707	KeyDown	41324	4	Index	32
669.7200000000000	0	n/a	401833	KeyDown	41324	4	Index	32
669.8766666666667	0	n/a	401927	KeyDown	41324	1	Little	32
670.1716666666667	0	n/a	402104	KeyDown	41324	3	Middle	32
670.3566666666667	0	n/a	402215	KeyDown	41324	2	Ring	32
670.5100000000000	0	n/a	402307	KeyDown	41324	4	Index	32
670.7500000000000	0	n/a	402451	KeyDown	41324	4	Index	32
670.8750000000000	0	n/a	402526	KeyDown	41324	1	Little	32
671.0700000000001	0	n/a	402643	KeyDown	41324	3	Middle	32
671.1916666666667	0	n/a	402716	KeyDown	41324	2	Ring	32
671.3483333333334	0	n/a	402810	KeyDown	41324	4	Index	32
671.5500000000001	0	n/a	402931	KeyDown	41324	4	Index	32
671.6950000000001	0	n/a	403018	KeyDown	41324	1	Little	32
671.8633333333333	0	n/a	403119	KeyDown	41324	3	Middle	32
671.9300000000001	0	n/a	403159	StopPractice	41324	n/a	n/a	32
671.9316666666667	0	n/a	403160	StartRest	XXXXX	n/a	n/a	32
681.9733333333334	0	n/a	409185	StopRest	XXXXX	n/a	n/a	32
681.9750000000000	0	UPPT001	409186	StartPractice	41324	n/a	n/a	33
683.4383333333334	0	n/a	410064	KeyDown	41324	4	Index	33
683.5733333333334	0	n/a	410145	KeyDown	41324	1	Little	33
683.7766666666668	0	n/a	410267	KeyDown	41324	3	Middle	33
683.9116666666667	0	n/a	410348	KeyDown	41324	2	Ring	33
684.0716666666667	0	n/a	410444	KeyDown	41324	4	Index	33
684.2716666666668	0	n/a	410564	KeyDown	41324	4	Index	33
684.4000000000001	0	n/a	410641	KeyDown	41324	1	Little	33
684.5683333333334	0	n/a	410742	KeyDown	41324	3	Middle	33
684.6716666666667	0	n/a	410804	KeyDown	41324	2	Ring	33
684.8116666666667	0	n/a	410888	KeyDown	41324	4	Index	33
684.9983333333333	0	n/a	411000	KeyDown	41324	4	Index	33
685.1216666666667	0	n/a	411074	KeyDown	41324	1	Little	33
685.2433333333333	0	n/a	411147	KeyDown	41324	3	Middle	33
685.3566666666667	0	n/a	411215	KeyDown	41324	2	Ring	33
685.4716666666667	0	n/a	411284	KeyDown	41324	4	Index	33
685.6950000000001	0	n/a	411418	KeyDown	41324	4	Index	33
685.8266666666667	0	n/a	411497	KeyDown	41324	1	Little	33
686.0166666666668	0	n/a	411611	KeyDown	41324	3	Middle	33
686.1350000000000	0	n/a	411682	KeyDown	41324	2	Ring	33
686.2816666666668	0	n/a	411770	KeyDown	41324	4	Index	33
686.4866666666667	0	n/a	411893	KeyDown	41324	4	Index	33
686.6350000000000	0	n/a	411982	KeyDown	41324	1	Little	33
686.7716666666668	0	n/a	412064	KeyDown	41324	3	Middle	33
686.8816666666667	0	n/a	412130	KeyDown	41324	2	Ring	33
687.0300000000001	0	n/a	412219	KeyDown	41324	4	Index	33
687.2366666666667	0	n/a	412343	KeyDown	41324	4	Index	33
687.3633333333333	0	n/a	412419	KeyDown	41324	1	Little	33
687.5166666666668	0	n/a	412511	KeyDown	41324	3	Middle	33
687.6283333333333	0	n/a	412578	KeyDown	41324	2	Ring	33
687.8750000000000	0	n/a	412726	KeyDown	41324	2	Ring	33
688.1616666666667	0	n/a	412898	KeyDown	41324	4	Index	33
688.7166666666667	0	n/a	413231	KeyDown	41324	4	Index	33
689.0033333333333	0	n/a	413403	KeyDown	41324	1	Little	33
689.2533333333333	0	n/a	413553	KeyDown	41324	2	Ring	33
689.3316666666667	0	n/a	413600	KeyDown	41324	3	Middle	33
689.6033333333334	0	n/a	413763	KeyDown	41324	2	Ring	33
689.7583333333333	0	n/a	413856	KeyDown	41324	4	Index	33
689.9766666666667	0	n/a	413987	KeyDown	41324	4	Index	33
690.2683333333334	0	n/a	414162	KeyDown	41324	1	Little	33
690.4916666666667	0	n/a	414296	KeyDown	41324	3	Middle	33
690.6233333333333	0	n/a	414375	KeyDown	41324	2	Ring	33
690.7700000000001	0	n/a	414463	KeyDown	41324	4	Index	33
690.9683333333334	0	n/a	414582	KeyDown	41324	4	Index	33
691.0900000000000	0	n/a	414655	KeyDown	41324	1	Little	33
691.2633333333333	0	n/a	414759	KeyDown	41324	3	Middle	33
691.3883333333333	0	n/a	414834	KeyDown	41324	2	Ring	33
691.5400000000001	0	n/a	414925	KeyDown	41324	4	Index	33
691.7283333333334	0	n/a	415038	KeyDown	41324	4	Index	33
691.8600000000000	0	n/a	415117	KeyDown	41324	1	Little	33
692.0216666666668	0	n/a	415214	StopPractice	41324	n/a	n/a	33
692.0233333333334	0	n/a	415215	StartRest	XXXXX	n/a	n/a	33
702.0483333333334	0	n/a	421230	StopRest	XXXXX	n/a	n/a	33
702.0500000000001	0	UPPT001	421231	StartPractice	41324	n/a	n/a	34
702.7983333333334	0	n/a	421680	KeyDown	41324	4	Index	34
702.9383333333334	0	n/a	421764	KeyDown	41324	1	Little	34
703.1033333333334	0	n/a	421863	KeyDown	41324	3	Middle	34
703.2100000000000	0	n/a	421927	KeyDown	41324	2	Ring	34
703.3616666666667	0	n/a	422018	KeyDown	41324	4	Index	34
703.5566666666667	0	n/a	422135	KeyDown	41324	4	Index	34
703.6733333333334	0	n/a	422205	KeyDown	41324	1	Little	34
703.7733333333334	0	n/a	422265	KeyDown	41324	3	Middle	34
703.8983333333334	0	n/a	422340	KeyDown	41324	2	Ring	34
704.0400000000001	0	n/a	422425	KeyDown	41324	4	Index	34
704.2466666666667	0	n/a	422549	KeyDown	41324	4	Index	34
704.3783333333333	0	n/a	422628	KeyDown	41324	1	Little	34
704.5733333333334	0	n/a	422745	KeyDown	41324	3	Middle	34
704.6783333333334	0	n/a	422808	KeyDown	41324	2	Ring	34
704.8383333333334	0	n/a	422904	KeyDown	41324	4	Index	34
705.0416666666667	0	n/a	423026	KeyDown	41324	4	Index	34
705.1766666666667	0	n/a	423107	KeyDown	41324	1	Little	34
705.3533333333334	0	n/a	423213	KeyDown	41324	3	Middle	34
705.4883333333333	0	n/a	423294	KeyDown	41324	2	Ring	34
705.6350000000000	0	n/a	423382	KeyDown	41324	4	Index	34
705.8166666666667	0	n/a	423491	KeyDown	41324	4	Index	34
705.9516666666667	0	n/a	423572	KeyDown	41324	1	Little	34
706.0966666666667	0	n/a	423659	KeyDown	41324	3	Middle	34
706.2116666666667	0	n/a	423728	KeyDown	41324	2	Ring	34
706.3666666666667	0	n/a	423821	KeyDown	41324	4	Index	34
706.5866666666667	0	n/a	423953	KeyDown	41324	4	Index	34
706.6833333333334	0	n/a	424011	KeyDown	41324	1	Little	34
706.8433333333334	0	n/a	424107	KeyDown	41324	3	Middle	34
706.9666666666667	0	n/a	424181	KeyDown	41324	2	Ring	34
707.1366666666667	0	n/a	424283	KeyDown	41324	4	Index	34
