onset	duration	channel	onset_sample_idx	event_type	target_sequence	keypress_id	finger_label	trial_number
3.4250000000000	0	UPPT001	2056	StartPractice	41324	n/a	n/a	1
5.3883333333333	0	n/a	3234	KeyDown	41324	4	Index	1
5.7683333333333	0	n/a	3462	KeyDown	41324	1	Little	1
6.3633333333333	0	n/a	3819	KeyDown	41324	3	Middle	1
6.8866666666667	0	n/a	4133	KeyDown	41324	2	Ring	1
7.4033333333333	0	n/a	4443	KeyDown	41324	4	Index	1
8.4233333333333	0	n/a	5055	KeyDown	41324	4	Index	1
9.2133333333333	0	n/a	5529	KeyDown	41324	1	Little	1
9.6483333333333	0	n/a	5790	KeyDown	41324	3	Middle	1
10.0000000000000	0	n/a	6001	KeyDown	41324	2	Ring	1
10.3616666666667	0	n/a	6218	KeyDown	41324	4	Index	1
10.9800000000000	0	n/a	6589	KeyDown	41324	4	Index	1
11.4133333333333	0	n/a	6849	KeyDown	41324	1	Little	1
11.8350000000000	0	n/a	7102	KeyDown	41324	3	Middle	1
12.2000000000000	0	n/a	7321	KeyDown	41324	2	Ring	1
12.7416666666667	0	n/a	7646	KeyDown	41324	4	Index	1
13.4633333333333	0	n/a	8079	StopPractice	41324	n/a	n/a	1
13.4650000000000	0	n/a	8080	StartRest	XXXXX	n/a	n/a	1
23.4833333333333	0	n/a	14091	StopRest	XXXXX	n/a	n/a	1
23.4850000000000	0	UPPT001	14092	StartPractice	41324	n/a	n/a	2
24.4133333333333	0	n/a	14649	KeyDown	41324	4	Index	2
25.0783333333333	0	n/a	15048	KeyDown	41324	1	Little	2
25.4683333333333	0	n/a	15282	KeyDown	41324	3	Middle	2
26.1900000000000	0	n/a	15715	KeyDown	41324	2	Ring	2
26.6416666666667	0	n/a	15986	KeyDown	41324	4	Index	2
27.2366666666667	0	n/a	16343	KeyDown	41324	4	Index	2
27.6483333333333	0	n/a	16590	KeyDown	41324	1	Little	2
28.0650000000000	0	n/a	16840	KeyDown	41324	3	Middle	2
28.4533333333333	0	n/a	17073	KeyDown	41324	2	Ring	2
28.7616666666667	0	n/a	17258	KeyDown	41324	4	Index	2
29.1283333333333	0	n/a	17478	KeyDown	41324	4	Index	2
29.3933333333333	0	n/a	17637	KeyDown	41324	1	Little	2
29.9300000000000	0	n/a	17959	KeyDown	41324	3	Middle	2
30.9566666666667	0	n/a	18575	KeyDown	41324	2	Ring	2
31.3166666666667	0	n/a	18791	KeyDown	41324	4	Index	2
32.5316666666667	0	n/a	19520	KeyDown	41324	4	Index	2
32.8600000000000	0	n/a	19717	KeyDown	41324	1	Little	2
33.2700000000000	0	n/a	19963	KeyDown	41324	3	Middle	2
33.5233333333333	0	n/a	20115	StopPractice	41324	n/a	n/a	2
33.5250000000000	0	n/a	20116	StartRest	XXXXX	n/a	n/a	2
43.5583333333333	0	n/a	26136	StopRest	XXXXX	n/a	n/a	2
43.5600000000000	0	UPPT001	26137	StartPractice	41324	n/a	n/a	3
44.1966666666667	0	n/a	26519	KeyDown	41324	4	Index	3
44.5000000000000	0	n/a	26701	KeyDown	41324	1	Little	3
44.8816666666667	0	n/a	26930	KeyDown	41324	3	Middle	3
45.2016666666667	0	n/a	27122	KeyDown	41324	2	Ring	3
45.5750000000000	0	n/a	27346	KeyDown	41324	4	Index	3
45.8633333333333	0	n/a	27519	KeyDown	41324	4	Index	3
46.1266666666667	0	n/a	27677	KeyDown	41324	1	Little	3
46.4550000000000	0	n/a	27874	KeyDown	41324	3	Middle	3
46.7566666666667	0	n/a	28055	KeyDown	41324	2	Ring	3
46.9883333333333	0	n/a	28194	KeyDown	41324	4	Index	3
47.2916666666667	0	n/a	28376	KeyDown	41324	4	Index	3
47.5216666666667	0	n/a	28514	KeyDown	41324	1	Little	3
47.8416666666667	0	n/a	28706	KeyDown	41324	3	Middle	3
48.1316666666667	0	n/a	28880	KeyDown	41324	2	Ring	3
48.4266666666667	0	n/a	29057	KeyDown	41324	4	Index	3
48.7133333333333	0	n/a	29229	KeyDown	41324	4	Index	3
48.9700000000000	0	n/a	29383	KeyDown	41324	1	Little	3
49.2116666666667	0	n/a	29528	KeyDown	41324	3	Middle	3
49.4900000000000	0	n/a	29695	KeyDown	41324	2	Ring	3
49.8916666666667	0	n/a	29936	KeyDown	41324	4	Index	3
50.3850000000000	0	n/a	30232	KeyDown	41324	4	Index	3
50.6316666666667	0	n/a	30380	KeyDown	41324	1	Little	3
50.9133333333333	0	n/a	30549	KeyDown	41324	3	Middle	3
51.1983333333333	0	n/a	30720	KeyDown	41324	2	Ring	3
51.5000000000000	0	n/a	30901	KeyDown	41324	4	Index	3
51.7983333333333	0	n/a	31080	KeyDown	41324	4	Index	3
52.0366666666667	0	n/a	31223	KeyDown	41324	1	Little	3
52.3050000000000	0	n/a	31384	KeyDown	41324	3	Middle	3
52.6383333333333	0	n/a	31584	KeyDown	41324	2	Ring	3
52.9666666666667	0	n/a	31781	KeyDown	41324	4	Index	3
53.4983333333333	0	n/a	32100	KeyDown	41324	4	Index	3
53.5983333333333	0	n/a	32160	StopPractice	41324	n/a	n/a	3
53.6000000000000	0	n/a	32161	StartRest	XXXXX	n/a	n/a	3
63.6333333333333	0	n/a	38181	StopRest	XXXXX	n/a	n/a	3
63.6350000000000	0	UPPT001	38182	StartPractice	41324	n/a	n/a	4
64.2983333333333	0	n/a	38580	KeyDown	41324	4	Index	4
64.5766666666667	0	n/a	38747	KeyDown	41324	1	Little	4
64.9116666666667	0	n/a	38948	KeyDown	41324	3	Middle	4
65.2966666666667	0	n/a	39179	KeyDown	41324	2	Ring	4
65.5683333333333	0	n/a	39342	KeyDown	41324	4	Index	4
65.9066666666667	0	n/a	39545	KeyDown	41324	4	Index	4
66.2666666666667	0	n/a	39761	KeyDown	41324	1	Little	4
66.5533333333333	0	n/a	39933	KeyDown	41324	3	Middle	4
66.8633333333333	0	n/a	40119	KeyDown	41324	2	Ring	4
67.2050000000000	0	n/a	40324	KeyDown	41324	4	Index	4
67.4883333333333	0	n/a	40494	KeyDown	41324	4	Index	4
67.7200000000000	0	n/a	40633	KeyDown	41324	1	Little	4
68.0133333333333	0	n/a	40809	KeyDown	41324	3	Middle	4
68.2900000000000	0	n/a	40975	KeyDown	41324	2	Ring	4
68.5600000000000	0	n/a	41137	KeyDown	41324	4	Index	4
68.8183333333333	0	n/a	41292	KeyDown	41324	4	Index	4
69.0416666666667	0	n/a	41426	KeyDown	41324	1	Little	4
69.2783333333333	0	n/a	41568	KeyDown	41324	3	Middle	4
69.4633333333333	0	n/a	41679	KeyDown	41324	2	Ring	4
69.7000000000000	0	n/a	41821	KeyDown	41324	4	Index	4
69.9633333333333	0	n/a	41979	KeyDown	41324	4	Index	4
70.2183333333333	0	n/a	42132	KeyDown	41324	1	Little	4
70.4666666666667	0	n/a	42281	KeyDown	41324	3	Middle	4
70.7183333333333	0	n/a	42432	KeyDown	41324	2	Ring	4
70.9683333333333	0	n/a	42582	KeyDown	41324	4	Index	4
71.2183333333333	0	n/a	42732	KeyDown	41324	4	Index	4
71.4400000000000	0	n/a	42865	KeyDown	41324	1	Little	4
71.6516666666667	0	n/a	42992	KeyDown	41324	3	Middle	4
71.8783333333333	0	n/a	43128	KeyDown	41324	2	Ring	4
72.0833333333333	0	n/a	43251	KeyDown	41324	4	Index	4
72.2983333333333	0	n/a	43380	KeyDown	41324	4	Index	4
72.5716666666667	0	n/a	43544	KeyDown	41324	1	Little	4
72.9616666666667	0	n/a	43778	KeyDown	41324	3	Middle	4
73.1283333333333	0	n/a	43878	KeyDown	41324	2	Ring	4
73.3916666666667	0	n/a	44036	KeyDown	41324	4	Index	4
73.6100000000000	0	n/a	44167	KeyDown	41324	4	Index	4
73.6733333333333	0	n/a	44205	StopPractice	41324	n/a	n/a	4
73.6750000000000	0	n/a	44206	StartRest	XXXXX	n/a	n/a	4
83.7066666666667	0	n/a	50225	StopRest	XXXXX	n/a	n/a	4
83.7083333333333	0	UPPT001	50226	StartPractice	41324	n/a	n/a	5
84.2850000000000	0	n/a	50572	KeyDown	41324	4	Index	5
84.5350000000000	0	n/a	50722	KeyDown	41324	1	Little	5
84.8166666666667	0	n/a	50891	KeyDown	41324	3	Middle	5
85.0900000000000	0	n/a	51055	KeyDown	41324	2	Ring	5
85.3083333333333	0	n/a	51186	KeyDown	41324	4	Index	5
85.5066666666667	0	n/a	51305	KeyDown	41324	4	Index	5
85.6750000000000	0	n/a	51406	KeyDown	41324	1	Little	5
85.8816666666667	0	n/a	51530	KeyDown	41324	3	Middle	5
86.1050000000000	0	n/a	51664	KeyDown	41324	2	Ring	5
86.2866666666667	0	n/a	51773	KeyDown	41324	4	Index	5
86.5350000000000	0	n/a	51922	KeyDown	41324	4	Index	5
86.6850000000000	0	n/a	52012	KeyDown	41324	1	Little	5
86.9066666666667	0	n/a	52145	KeyDown	41324	3	Middle	5
87.1516666666667	0	n/a	52292	KeyDown	41324	2	Ring	5
87.4750000000000	0	n/a	52486	KeyDown	41324	4	Index	5
87.8350000000000	0	n/a	52702	KeyDown	41324	4	Index	5
88.0233333333333	0	n/a	52815	KeyDown	41324	1	Little	5
88.2650000000000	0	n/a	52960	KeyDown	41324	3	Middle	5
88.5616666666667	0	n/a	53138	KeyDown	41324	2	Ring	5
88.7916666666667	0	n/a	53276	KeyDown	41324	4	Index	5
89.0700000000000	0	n/a	53443	KeyDown	41324	4	Index	5
89.2750000000000	0	n/a	53566	KeyDown	41324	1	Little	5
89.6883333333333	0	n/a	53814	KeyDown	41324	3	Middle	5
89.9750000000000	0	n/a	53986	KeyDown	41324	2	Ring	5
90.1600000000000	0	n/a	54097	KeyDown	41324	4	Index	5
90.4133333333333	0	n/a	54249	KeyDown	41324	4	Index	5
90.6450000000000	0	n/a	54388	KeyDown	41324	1	Little	5
90.8833333333333	0	n/a	54531	KeyDown	41324	3	Middle	5
91.1616666666667	0	n/a	54698	KeyDown	41324	2	Ring	5
91.4000000000000	0	n/a	54841	KeyDown	41324	4	Index	5
91.6650000000000	0	n/a	55000	KeyDown	41324	4	Index	5
91.8150000000000	0	n/a	55090	KeyDown	41324	1	Little	5
92.0466666666667	0	n/a	55229	KeyDown	41324	3	Middle	5
92.3950000000000	0	n/a	55438	KeyDown	41324	2	Ring	5
92.6250000000000	0	n/a	55576	KeyDown	41324	4	Index	5
92.9066666666667	0	n/a	55745	KeyDown	41324	4	Index	5
93.0816666666667	0	n/a	55850	KeyDown	41324	1	Little	5
93.3716666666667	0	n/a	56024	KeyDown	41324	3	Middle	5
93.7466666666667	0	n/a	56249	StopPractice	41324	n/a	n/a	5
93.7483333333333	0	n/a	56250	StartRest	XXXXX	n/a	n/a	5
103.7833333333333	0	n/a	62271	StopRest	XXXXX	n/a	n/a	5
103.7850000000000	0	UPPT001	62272	StartPractice	41324	n/a	n/a	6
104.2550000000000	0	n/a	62554	KeyDown	41324	4	Index	6
104.5516666666667	0	n/a	62732	KeyDown	41324	1	Little	6
104.8716666666667	0	n/a	62924	KeyDown	41324	3	Middle	6
105.1000000000000	0	n/a	63061	KeyDown	41324	2	Ring	6
105.3633333333333	0	n/a	63219	KeyDown	41324	4	Index	6
105.6833333333333	0	n/a	63411	KeyDown	41324	4	Index	6
105.8400000000000	0	n/a	63505	KeyDown	41324	1	Little	6
106.1133333333333	0	n/a	63669	KeyDown	41324	3	Middle	6
106.3783333333333	0	n/a	63828	KeyDown	41324	2	Ring	6
106.6466666666667	0	n/a	63989	KeyDown	41324	4	Index	6
106.9116666666667	0	n/a	64148	KeyDown	41324	4	Index	6
107.1233333333333	0	n/a	64275	KeyDown	41324	1	Little	6
107.4050000000000	0	n/a	64444	KeyDown	41324	3	Middle	6
107.6633333333333	0	n/a	64599	KeyDown	41324	2	Ring	6
107.8616666666667	0	n/a	64718	KeyDown	41324	4	Index	6
108.1066666666667	0	n/a	64865	KeyDown	41324	4	Index	6
108.2500000000000	0	n/a	64951	KeyDown	41324	1	Little	6
108.4550000000000	0	n/a	65074	KeyDown	41324	3	Middle	6
108.6683333333333	0	n/a	65202	KeyDown	41324	2	Ring	6
108.9583333333333	0	n/a	65376	KeyDown	41324	4	Index	6
109.3000000000000	0	n/a	65581	KeyDown	41324	4	Index	6
109.5433333333333	0	n/a	65727	KeyDown	41324	1	Little	6
109.8316666666667	0	n/a	65900	KeyDown	41324	3	Middle	6
110.1900000000000	0	n/a	66115	KeyDown	41324	2	Ring	6
110.5533333333333	0	n/a	66333	KeyDown	41324	4	Index	6
110.8433333333333	0	n/a	66507	KeyDown	41324	4	Index	6
110.9816666666667	0	n/a	66590	KeyDown	41324	1	Little	6
111.2400000000000	0	n/a	66745	KeyDown	41324	3	Middle	6
111.4266666666667	0	n/a	66857	KeyDown	41324	2	Ring	6
111.7883333333333	0	n/a	67074	KeyDown	41324	4	Index	6
112.0550000000000	0	n/a	67234	KeyDown	41324	4	Index	6
112.3216666666667	0	n/a	67394	KeyDown	41324	1	Little	6
112.8016666666667	0	n/a	67682	KeyDown	41324	3	Middle	6
113.0283333333333	0	n/a	67818	KeyDown	41324	2	Ring	6
113.2733333333333	0	n/a	67965	KeyDown	41324	4	Index	6
113.5183333333333	0	n/a	68112	KeyDown	41324	4	Index	6
113.6833333333333	0	n/a	68211	KeyDown	41324	1	Little	6
113.8233333333333	0	n/a	68295	StopPractice	41324	n/a	n/a	6
113.8250000000000	0	n/a	68296	StartRest	XXXXX	n/a	n/a	6
123.8583333333333	0	n/a	74316	StopRest	XXXXX	n/a	n/a	6
123.8600000000000	0	UPPT001	74317	StartPractice	41324	n/a	n/a	7
124.3383333333333	0	n/a	74604	KeyDown	41324	4	Index	7
124.5516666666667	0	n/a	74732	KeyDown	41324	1	Little	7
124.7733333333333	0	n/a	74865	KeyDown	41324	3	Middle	7
125.0116666666667	0	n/a	75008	KeyDown	41324	2	Ring	7
125.2283333333333	0	n/a	75138	KeyDown	41324	4	Index	7
125.4716666666667	0	n/a	75284	KeyDown	41324	4	Index	7
125.8583333333333	0	n/a	75516	KeyDown	41324	1	Little	7
126.0600000000000	0	n/a	75637	KeyDown	41324	3	Middle	7
126.4933333333333	0	n/a	75897	KeyDown	41324	2	Ring	7
126.7066666666667	0	n/a	76025	KeyDown	41324	4	Index	7
126.9966666666667	0	n/a	76199	KeyDown	41324	4	Index	7
127.2733333333333	0	n/a	76365	KeyDown	41324	1	Little	7
127.6016666666667	0	n/a	76562	KeyDown	41324	3	Middle	7
127.7916666666667	0	n/a	76676	KeyDown	41324	2	Ring	7
128.0066666666667	0	n/a	76805	KeyDown	41324	4	Index	7
128.3016666666667	0	n/a	76982	KeyDown	41324	4	Index	7
128.4966666666667	0	n/a	77099	KeyDown	41324	1	Little	7
128.8533333333334	0	n/a	77313	KeyDown	41324	3	Middle	7
129.1300000000000	0	n/a	77479	KeyDown	41324	2	Ring	7
129.3483333333333	0	n/a	77610	KeyDown	41324	4	Index	7
129.6133333333333	0	n/a	77769	KeyDown	41324	4	Index	7
129.8950000000000	0	n/a	77938	KeyDown	41324	1	Little	7
130.1166666666667	0	n/a	78071	KeyDown	41324	3	Middle	7
130.3000000000000	0	n/a	78181	KeyDown	41324	2	Ring	7
130.5666666666667	0	n/a	78341	KeyDown	41324	4	Index	7
130.7933333333334	0	n/a	78477	KeyDown	41324	4	Index	7
131.0183333333333	0	n/a	78612	KeyDown	41324	1	Little	7
131.2316666666667	0	n/a	78740	KeyDown	41324	3	Middle	7
131.5166666666667	0	n/a	78911	KeyDown	41324	2	Ring	7
131.7316666666667	0	n/a	79040	KeyDown	41324	4	Index	7
132.0966666666667	0	n/a	79259	KeyDown	41324	4	Index	7
132.2400000000000	0	n/a	79345	KeyDown	41324	1	Little	7
132.6016666666667	0	n/a	79562	KeyDown	41324	3	Middle	7
132.7733333333333	0	n/a	79665	KeyDown	41324	2	Ring	7
133.0066666666667	0	n/a	79805	KeyDown	41324	4	Index	7
133.3233333333334	0	n/a	79995	KeyDown	41324	4	Index	7
133.4916666666667	0	n/a	80096	KeyDown	41324	1	Little	7
133.8983333333333	0	n/a	80340	StopPractice	41324	n/a	n/a	7
133.9000000000000	0	n/a	80341	StartRest	XXXXX	n/a	n/a	7
143.9316666666667	0	n/a	86360	StopRest	XXXXX	n/a	n/a	7
143.9333333333333	0	UPPT001	86361	StartPractice	41324	n/a	n/a	8
144.5483333333333	0	n/a	86730	KeyDown	41324	4	Index	8
144.7500000000000	0	n/a	86851	KeyDown	41324	1	Little	8
144.9150000000000	0	n/a	86950	KeyDown	41324	3	Middle	8
145.1216666666667	0	n/a	87074	KeyDown	41324	2	Ring	8
145.3183333333334	0	n/a	87192	KeyDown	41324	4	Index	8
145.5283333333333	0	n/a	87318	KeyDown	41324	4	Index	8
145.7300000000000	0	n/a	87439	KeyDown	41324	1	Little	8
146.0383333333334	0	n/a	87624	KeyDown	41324	3	Middle	8
146.2450000000000	0	n/a	87748	KeyDown	41324	2	Ring	8
146.4266666666667	0	n/a	87857	KeyDown	41324	4	Index	8
146.6516666666667	0	n/a	87992	KeyDown	41324	4	Index	8
146.8216666666667	0	n/a	88094	KeyDown	41324	1	Little	8
147.0200000000000	0	n/a	88213	KeyDown	41324	3	Middle	8
147.1883333333333	0	n/a	88314	KeyDown	41324	2	Ring	8
147.3966666666667	0	n/a	88439	KeyDown	41324	4	Index	8
147.6933333333334	0	n/a	88617	KeyDown	41324	4	Index	8
147.9050000000000	0	n/a	88744	KeyDown	41324	1	Little	8
148.1300000000000	0	n/a	88879	KeyDown	41324	3	Middle	8
148.2966666666667	0	n/a	88979	KeyDown	41324	2	Ring	8
148.4566666666667	0	n/a	89075	KeyDown	41324	4	Index	8
148.7366666666667	0	n/a	89243	KeyDown	41324	4	Index	8
148.9300000000000	0	n/a	89359	KeyDown	41324	1	Little	8
149.1416666666667	0	n/a	89486	KeyDown	41324	3	Middle	8
149.3033333333333	0	n/a	89583	KeyDown	41324	2	Ring	8
149.4916666666667	0	n/a	89696	KeyDown	41324	4	Index	8
149.7966666666667	0	n/a	89879	KeyDown	41324	4	Index	8
150.2433333333333	0	n/a	90147	KeyDown	41324	1	Little	8
150.4366666666667	0	n/a	90263	KeyDown	41324	3	Middle	8
150.6450000000000	0	n/a	90388	KeyDown	41324	2	Ring	8
150.8800000000000	0	n/a	90529	KeyDown	41324	4	Index	8
151.1816666666667	0	n/a	90710	KeyDown	41324	4	Index	8
151.4250000000000	0	n/a	90856	KeyDown	41324	1	Little	8
152.2233333333333	0	n/a	91335	KeyDown	41324	2	Ring	8
152.7866666666667	0	n/a	91673	KeyDown	41324	3	Middle	8
152.9400000000000	0	n/a	91765	KeyDown	41324	4	Index	8
153.2416666666667	0	n/a	91946	KeyDown	41324	4	Index	8
153.9716666666667	0	n/a	92384	StopPractice	41324	n/a	n/a	8
153.9733333333333	0	n/a	92385	StartRest	XXXXX	n/a	n/a	8
164.0066666666667	0	n/a	98405	StopRest	XXXXX	n/a	n/a	8
164.0083333333334	0	UPPT001	98406	StartPractice	41324	n/a	n/a	9
164.4666666666667	0	n/a	98681	KeyDown	41324	4	Index	9
164.6816666666667	0	n/a	98810	KeyDown	41324	1	Little	9
164.8616666666667	0	n/a	98918	KeyDown	41324	3	Middle	9
165.0700000000000	0	n/a	99043	KeyDown	41324	2	Ring	9
165.2816666666667	0	n/a	99170	KeyDown	41324	4	Index	9
165.4983333333333	0	n/a	99300	KeyDown	41324	4	Index	9
165.6616666666667	0	n/a	99398	KeyDown	41324	1	Little	9
165.8950000000000	0	n/a	99538	KeyDown	41324	3	Middle	9
166.1283333333333	0	n/a	99678	KeyDown	41324	2	Ring	9
166.3350000000000	0	n/a	99802	KeyDown	41324	4	Index	9
166.6116666666667	0	n/a	99968	KeyDown	41324	4	Index	9
166.9200000000000	0	n/a	100153	KeyDown	41324	1	Little	9
167.1200000000000	0	n/a	100273	KeyDown	41324	3	Middle	9
167.3450000000000	0	n/a	100408	KeyDown	41324	2	Ring	9
167.5316666666667	0	n/a	100520	KeyDown	41324	4	Index	9
167.7866666666667	0	n/a	100673	KeyDown	41324	4	Index	9
167.9483333333334	0	n/a	100770	KeyDown	41324	1	Little	9
168.1383333333333	0	n/a	100884	KeyDown	41324	3	Middle	9
168.2833333333333	0	n/a	100971	KeyDown	41324	2	Ring	9
168.4416666666667	0	n/a	101066	KeyDown	41324	4	Index	9
168.7150000000000	0	n/a	101230	KeyDown	41324	4	Index	9
169.2433333333333	0	n/a	101547	KeyDown	41324	1	Little	9
169.6850000000000	0	n/a	101812	KeyDown	41324	3	Middle	9
169.8783333333333	0	n/a	101928	KeyDown	41324	2	Ring	9
170.0616666666667	0	n/a	102038	KeyDown	41324	4	Index	9
170.3000000000000	0	n/a	102181	KeyDown	41324	4	Index	9
170.4600000000000	0	n/a	102277	KeyDown	41324	1	Little	9
170.7450000000000	0	n/a	102448	KeyDown	41324	3	Middle	9
171.4016666666667	0	n/a	102842	KeyDown	41324	2	Ring	9
171.5883333333333	0	n/a	102954	KeyDown	41324	4	Index	9
171.9766666666667	0	n/a	103187	KeyDown	41324	4	Index	9
172.1266666666667	0	n/a	103277	KeyDown	41324	1	Little	9
172.3616666666667	0	n/a	103418	KeyDown	41324	3	Middle	9
172.8450000000000	0	n/a	103708	KeyDown	41324	2	Ring	9
173.0283333333333	0	n/a	103818	KeyDown	41324	4	Index	9
173.2700000000000	0	n/a	103963	KeyDown	41324	4	Index	9
173.4216666666667	0	n/a	104054	KeyDown	41324	1	Little	9
173.7750000000000	0	n/a	104266	KeyDown	41324	3	Middle	9
174.0466666666667	0	n/a	104429	StopPractice	41324	n/a	n/a	9
174.0483333333333	0	n/a	104430	StartRest	XXXXX	n/a	n/a	9
184.0816666666667	0	n/a	110450	StopRest	XXXXX	n/a	n/a	9
184.0833333333333	0	UPPT001	110451	StartPractice	41324	n/a	n/a	10
184.5616666666667	0	n/a	110738	KeyDown	41324	4	Index	10
184.7150000000000	0	n/a	110830	KeyDown	41324	1	Little	10
184.8866666666667	0	n/a	110933	KeyDown	41324	3	Middle	10
185.0650000000000	0	n/a	111040	KeyDown	41324	2	Ring	10
185.2166666666667	0	n/a	111131	KeyDown	41324	4	Index	10
185.4650000000000	0	n/a	111280	KeyDown	41324	4	Index	10
185.6250000000000	0	n/a	111376	KeyDown	41324	1	Little	10
185.8066666666667	0	n/a	111485	KeyDown	41324	3	Middle	10
185.9883333333333	0	n/a	111594	KeyDown	41324	2	Ring	10
186.1283333333334	0	n/a	111678	KeyDown	41324	4	Index	10
186.3700000000000	0	n/a	111823	KeyDown	41324	4	Index	10
186.5650000000000	0	n/a	111940	KeyDown	41324	1	Little	10
186.7700000000000	0	n/a	112063	KeyDown	41324	3	Middle	10
186.9500000000000	0	n/a	112171	KeyDown	41324	2	Ring	10
187.1200000000000	0	n/a	112273	KeyDown	41324	4	Index	10
187.4183333333334	0	n/a	112452	KeyDown	41324	4	Index	10
187.6766666666667	0	n/a	112607	KeyDown	41324	1	Little	10
187.9416666666667	0	n/a	112766	KeyDown	41324	3	Middle	10
188.5766666666667	0	n/a	113147	KeyDown	41324	2	Ring	10
188.8150000000000	0	n/a	113290	KeyDown	41324	4	Index	10
189.1200000000000	0	n/a	113473	KeyDown	41324	4	Index	10
189.3600000000000	0	n/a	113617	KeyDown	41324	1	Little	10
189.6400000000000	0	n/a	113785	KeyDown	41324	3	Middle	10
189.8800000000000	0	n/a	113929	KeyDown	41324	2	Ring	10
190.0800000000000	0	n/a	114049	KeyDown	41324	4	Index	10
190.7150000000000	0	n/a	114430	KeyDown	41324	4	Index	10
190.9016666666667	0	n/a	114542	KeyDown	41324	1	Little	10
191.1916666666667	0	n/a	114716	KeyDown	41324	3	Middle	10
191.3700000000000	0	n/a	114823	KeyDown	41324	2	Ring	10
191.5016666666667	0	n/a	114902	KeyDown	41324	4	Index	10
191.8116666666667	0	n/a	115088	KeyDown	41324	4	Index	10
192.1216666666667	0	n/a	115274	KeyDown	41324	1	Little	10
192.3616666666667	0	n/a	115418	KeyDown	41324	3	Middle	10
192.5300000000000	0	n/a	115519	KeyDown	41324	2	Ring	10
192.7116666666667	0	n/a	115628	KeyDown	41324	4	Index	10
193.0150000000000	0	n/a	115810	KeyDown	41324	4	Index	10
193.1466666666667	0	n/a	115889	KeyDown	41324	1	Little	10
193.3683333333333	0	n/a	116022	KeyDown	41324	3	Middle	10
193.5516666666667	0	n/a	116132	KeyDown	41324	2	Ring	10
193.7766666666667	0	n/a	116267	KeyDown	41324	4	Index	10
194.0466666666667	0	n/a	116429	KeyDown	41324	4	Index	10
194.1216666666667	0	n/a	116474	StopPractice	41324	n/a	n/a	10
194.1233333333333	0	n/a	116475	StartRest	XXXXX	n/a	n/a	10
204.1566666666667	0	n/a	122495	StopRest	XXXXX	n/a	n/a	10
204.1583333333334	0	UPPT001	122496	StartPractice	41324	n/a	n/a	11
204.6316666666667	0	n/a	122780	KeyDown	41324	4	Index	11
204.9150000000000	0	n/a	122950	KeyDown	41324	1	Little	11
205.1900000000000	0	n/a	123115	KeyDown	41324	3	Middle	11
205.3750000000000	0	n/a	123226	KeyDown	41324	2	Ring	11
205.5683333333334	0	n/a	123342	KeyDown	41324	4	Index	11
205.8266666666667	0	n/a	123497	KeyDown	41324	4	Index	11
206.0866666666667	0	n/a	123653	KeyDown	41324	1	Little	11
206.3433333333333	0	n/a	123807	KeyDown	41324	3	Middle	11
206.4983333333333	0	n/a	123900	KeyDown	41324	2	Ring	11
206.7033333333333	0	n/a	124023	KeyDown	41324	4	Index	11
206.9983333333333	0	n/a	124200	KeyDown	41324	4	Index	11
207.2900000000000	0	n/a	124375	KeyDown	41324	1	Little	11
207.5316666666667	0	n/a	124520	KeyDown	41324	3	Middle	11
207.6750000000000	0	n/a	124606	KeyDown	41324	2	Ring	11
207.8466666666667	0	n/a	124709	KeyDown	41324	4	Index	11
208.1216666666667	0	n/a	124874	KeyDown	41324	4	Index	11
208.5966666666667	0	n/a	125159	KeyDown	41324	1	Little	11
208.8666666666667	0	n/a	125321	KeyDown	41324	3	Middle	11
209.0066666666667	0	n/a	125405	KeyDown	41324	2	Ring	11
209.1550000000000	0	n/a	125494	KeyDown	41324	4	Index	11
209.5050000000000	0	n/a	125704	KeyDown	41324	4	Index	11
209.7800000000000	0	n/a	125869	KeyDown	41324	1	Little	11
210.0366666666667	0	n/a	126023	KeyDown	41324	3	Middle	11
210.2066666666667	0	n/a	126125	KeyDown	41324	2	Ring	11
210.3816666666667	0	n/a	126230	KeyDown	41324	4	Index	11
210.6350000000000	0	n/a	126382	KeyDown	41324	4	Index	11
211.0066666666667	0	n/a	126605	KeyDown	41324	1	Little	11
211.2900000000000	0	n/a	126775	KeyDown	41324	3	Middle	11
211.4766666666667	0	n/a	126887	KeyDown	41324	2	Ring	11
211.6666666666667	0	n/a	127001	KeyDown	41324	4	Index	11
212.0833333333333	0	n/a	127251	KeyDown	41324	4	Index	11
212.4200000000000	0	n/a	127453	KeyDown	41324	1	Little	11
212.8933333333333	0	n/a	127737	KeyDown	41324	3	Middle	11
213.0516666666667	0	n/a	127832	KeyDown	41324	2	Ring	11
213.2050000000000	0	n/a	127924	KeyDown	41324	4	Index	11
213.4866666666667	0	n/a	128093	KeyDown	41324	4	Index	11
213.7750000000000	0	n/a	128266	KeyDown	41324	1	Little	11
214.0216666666667	0	n/a	128414	KeyDown	41324	3	Middle	11
214.1966666666667	0	n/a	128519	StopPractice	41324	n/a	n/a	11
214.1983333333334	0	n/a	128520	StartRest	XXXXX	n/a	n/a	11
224.2316666666667	0	n/a	134540	StopRest	XXXXX	n/a	n/a	11
224.2333333333333	0	UPPT001	134541	StartPractice	41324	n/a	n/a	12
224.7316666666667	0	n/a	134840	KeyDown	41324	4	Index	12
224.9316666666667	0	n/a	134960	KeyDown	41324	1	Little	12
225.1200000000000	0	n/a	135073	KeyDown	41324	3	Middle	12
225.2916666666667	0	n/a	135176	KeyDown	41324	2	Ring	12
225.4266666666667	0	n/a	135257	KeyDown	41324	4	Index	12
225.7133333333333	0	n/a	135429	KeyDown	41324	4	Index	12
225.8850000000000	0	n/a	135532	KeyDown	41324	1	Little	12
226.1583333333334	0	n/a	135696	KeyDown	41324	3	Middle	12
226.3000000000000	0	n/a	135781	KeyDown	41324	2	Ring	12
226.4350000000000	0	n/a	135862	KeyDown	41324	4	Index	12
226.7033333333333	0	n/a	136023	KeyDown	41324	4	Index	12
226.9550000000000	0	n/a	136174	KeyDown	41324	1	Little	12
227.1316666666667	0	n/a	136280	KeyDown	41324	3	Middle	12
227.2616666666667	0	n/a	136358	KeyDown	41324	2	Ring	12
227.4083333333334	0	n/a	136446	KeyDown	41324	4	Index	12
227.6850000000000	0	n/a	136612	KeyDown	41324	4	Index	12
227.9983333333333	0	n/a	136800	KeyDown	41324	1	Little	12
228.2900000000000	0	n/a	136975	KeyDown	41324	3	Middle	12
228.4250000000000	0	n/a	137056	KeyDown	41324	2	Ring	12
228.5633333333334	0	n/a	137139	KeyDown	41324	4	Index	12
228.7966666666667	0	n/a	137279	KeyDown	41324	4	Index	12
229.1250000000000	0	n/a	137476	KeyDown	41324	1	Little	12
229.3766666666667	0	n/a	137627	KeyDown	41324	3	Middle	12
229.5116666666667	0	n/a	137708	KeyDown	41324	2	Ring	12
229.6366666666667	0	n/a	137783	KeyDown	41324	4	Index	12
229.8966666666667	0	n/a	137939	KeyDown	41324	4	Index	12
230.0950000000000	0	n/a	138058	KeyDown	41324	1	Little	12
230.4950000000000	0	n/a	138298	KeyDown	41324	3	Middle	12
230.5933333333334	0	n/a	138357	KeyDown	41324	2	Ring	12
230.7416666666667	0	n/a	138446	KeyDown	41324	4	Index	12
231.0483333333333	0	n/a	138630	KeyDown	41324	4	Index	12
231.2833333333334	0	n/a	138771	KeyDown	41324	1	Little	12
231.5916666666667	0	n/a	138956	KeyDown	41324	3	Middle	12
231.7216666666667	0	n/a	139034	KeyDown	41324	2	Ring	12
231.8350000000000	0	n/a	139102	KeyDown	41324	4	Index	12
232.2516666666667	0	n/a	139352	KeyDown	41324	4	Index	12
232.4116666666667	0	n/a	139448	KeyDown	41324	1	Little	12
232.6866666666667	0	n/a	139613	KeyDown	41324	3	Middle	12
232.7966666666667	0	n/a	139679	KeyDown	41324	2	Ring	12
232.9316666666667	0	n/a	139760	KeyDown	41324	4	Index	12
233.2000000000000	0	n/a	139921	KeyDown	41324	4	Index	12
233.6800000000000	0	n/a	140209	KeyDown	41324	1	Little	12
233.9300000000000	0	n/a	140359	KeyDown	41324	3	Middle	12
234.0400000000000	0	n/a	140425	KeyDown	41324	2	Ring	12
234.1916666666667	0	n/a	140516	KeyDown	41324	4	Index	12
234.2716666666667	0	n/a	140564	StopPractice	41324	n/a	n/a	12
234.2733333333333	0	n/a	140565	StartRest	XXXXX	n/a	n/a	12
244.3066666666667	0	n/a	146585	StopRest	XXXXX	n/a	n/a	12
244.3083333333333	0	UPPT001	146586	StartPractice	41324	n/a	n/a	13
244.8000000000000	0	n/a	146881	KeyDown	41324	4	Index	13
244.9866666666667	0	n/a	146993	KeyDown	41324	1	Little	13
245.1683333333334	0	n/a	147102	KeyDown	41324	3	Middle	13
245.3083333333333	0	n/a	147186	KeyDown	41324	2	Ring	13
245.4900000000000	0	n/a	147295	KeyDown	41324	4	Index	13
245.7716666666667	0	n/a	147464	KeyDown	41324	4	Index	13
245.9350000000000	0	n/a	147562	KeyDown	41324	1	Little	13
246.1450000000000	0	n/a	147688	KeyDown	41324	3	Middle	13
246.2816666666667	0	n/a	147770	KeyDown	41324	2	Ring	13
246.4366666666667	0	n/a	147863	KeyDown	41324	4	Index	13
246.8983333333333	0	n/a	148140	KeyDown	41324	4	Index	13
247.2016666666667	0	n/a	148322	KeyDown	41324	1	Little	13
247.3900000000000	0	n/a	148435	KeyDown	41324	3	Middle	13
247.5550000000000	0	n/a	148534	KeyDown	41324	2	Ring	13
247.6900000000000	0	n/a	148615	KeyDown	41324	4	Index	13
247.9816666666667	0	n/a	148790	KeyDown	41324	4	Index	13
248.3100000000000	0	n/a	148987	KeyDown	41324	1	Little	13
248.6050000000000	0	n/a	149164	KeyDown	41324	3	Middle	13
248.7800000000000	0	n/a	149269	KeyDown	41324	2	Ring	13
248.9150000000000	0	n/a	149350	KeyDown	41324	4	Index	13
249.1900000000000	0	n/a	149515	KeyDown	41324	1	Little	13
249.9100000000000	0	n/a	149947	KeyDown	41324	4	Index	13
250.2933333333334	0	n/a	150177	KeyDown	41324	1	Little	13
250.4900000000000	0	n/a	150295	KeyDown	41324	3	Middle	13
251.2250000000000	0	n/a	150736	KeyDown	41324	2	Ring	13
251.6233333333334	0	n/a	150975	KeyDown	41324	4	Index	13
251.8866666666667	0	n/a	151133	KeyDown	41324	4	Index	13
252.1950000000000	0	n/a	151318	KeyDown	41324	1	Little	13
252.4583333333333	0	n/a	151476	KeyDown	41324	3	Middle	13
252.6350000000000	0	n/a	151582	KeyDown	41324	2	Ring	13
252.8283333333333	0	n/a	151698	KeyDown	41324	4	Index	13
253.1800000000000	0	n/a	151909	KeyDown	41324	4	Index	13
253.4700000000000	0	n/a	152083	KeyDown	41324	1	Little	13
253.9866666666667	0	n/a	152393	KeyDown	41324	3	Middle	13
254.3466666666667	0	n/a	152609	StopPractice	41324	n/a	n/a	13
254.3483333333334	0	n/a	152610	StartRest	XXXXX	n/a	n/a	13
264.3816666666667	0	n/a	158630	StopRest	XXXXX	n/a	n/a	13
264.3833333333333	0	UPPT001	158631	StartPractice	41324	n/a	n/a	14
264.8583333333333	0	n/a	158916	KeyDown	41324	4	Index	14
265.0900000000000	0	n/a	159055	KeyDown	41324	1	Little	14
265.2700000000000	0	n/a	159163	KeyDown	41324	3	Middle	14
265.5666666666667	0	n/a	159341	KeyDown	41324	2	Ring	14
265.7516666666667	0	n/a	159452	KeyDown	41324	4	Index	14
266.0416666666667	0	n/a	159626	KeyDown	41324	4	Index	14
266.2083333333334	0	n/a	159726	KeyDown	41324	1	Little	14
266.4016666666667	0	n/a	159842	KeyDown	41324	3	Middle	14
266.5633333333333	0	n/a	159939	KeyDown	41324	2	Ring	14
266.6850000000000	0	n/a	160012	KeyDown	41324	4	Index	14
266.9766666666667	0	n/a	160187	KeyDown	41324	4	Index	14
267.3850000000000	0	n/a	160432	KeyDown	41324	1	Little	14
267.5800000000000	0	n/a	160549	KeyDown	41324	3	Middle	14
267.8350000000000	0	n/a	160702	KeyDown	41324	2	Ring	14
268.2450000000000	0	n/a	160948	KeyDown	41324	4	Index	14
268.5316666666667	0	n/a	161120	KeyDown	41324	4	Index	14
268.8966666666667	0	n/a	161339	KeyDown	41324	1	Little	14
269.1433333333334	0	n/a	161487	KeyDown	41324	3	Middle	14
269.3200000000000	0	n/a	161593	KeyDown	41324	2	Ring	14
269.4950000000000	0	n/a	161698	KeyDown	41324	4	Index	14
269.8250000000000	0	n/a	161896	KeyDown	41324	4	Index	14
270.1266666666667	0	n/a	162077	KeyDown	41324	1	Little	14
270.3716666666667	0	n/a	162224	KeyDown	41324	3	Middle	14
270.5766666666667	0	n/a	162347	KeyDown	41324	2	Ring	14
270.9133333333334	0	n/a	162549	KeyDown	41324	4	Index	14
271.3500000000000	0	n/a	162811	KeyDown	41324	4	Index	14
271.9466666666667	0	n/a	163169	KeyDown	41324	1	Little	14
272.2100000000000	0	n/a	163327	KeyDown	41324	3	Middle	14
272.3700000000000	0	n/a	163423	KeyDown	41324	2	Ring	14
272.5516666666667	0	n/a	163532	KeyDown	41324	4	Index	14
273.1900000000000	0	n/a	163915	KeyDown	41324	4	Index	14
273.4016666666667	0	n/a	164042	KeyDown	41324	1	Little	14
273.6000000000000	0	n/a	164161	KeyDown	41324	3	Middle	14
273.7450000000000	0	n/a	164248	KeyDown	41324	2	Ring	14
273.8666666666667	0	n/a	164321	KeyDown	41324	4	Index	14
274.2000000000000	0	n/a	164521	KeyDown	41324	4	Index	14
274.4216666666667	0	n/a	164654	StopPractice	41324	n/a	n/a	14
274.4233333333333	0	n/a	164655	StartRest	XXXXX	n/a	n/a	14
284.4550000000000	0	n/a	170674	StopRest	XXXXX	n/a	n/a	14
284.4566666666667	0	UPPT001	170675	StartPractice	41324	n/a	n/a	15
285.0766666666667	0	n/a	171047	KeyDown	41324	4	Index	15
285.3433333333334	0	n/a	171207	KeyDown	41324	1	Little	15
285.5266666666667	0	n/a	171317	KeyDown	41324	3	Middle	15
285.6966666666667	0	n/a	171419	KeyDown	41324	2	Ring	15
285.8633333333333	0	n/a	171519	KeyDown	41324	4	Index	15
286.2016666666667	0	n/a	171722	KeyDown	41324	4	Index	15
286.3650000000000	0	n/a	171820	KeyDown	41324	1	Little	15
286.5666666666667	0	n/a	171941	KeyDown	41324	3	Middle	15
286.7250000000000	0	n/a	172036	KeyDown	41324	2	Ring	15
286.8600000000000	0	n/a	172117	KeyDown	41324	4	Index	15
287.1266666666667	0	n/a	172277	KeyDown	41324	4	Index	15
287.3033333333333	0	n/a	172383	KeyDown	41324	1	Little	15
287.6850000000000	0	n/a	172612	KeyDown	41324	3	Middle	15
287.8350000000000	0	n/a	172702	KeyDown	41324	2	Ring	15
288.0033333333333	0	n/a	172803	KeyDown	41324	4	Index	15
288.2700000000000	0	n/a	172963	KeyDown	41324	4	Index	15
288.9166666666667	0	n/a	173351	KeyDown	41324	1	Little	15
289.2133333333334	0	n/a	173529	KeyDown	41324	2	Ring	15
289.3516666666667	0	n/a	173612	KeyDown	41324	3	Middle	15
289.8266666666667	0	n/a	173897	KeyDown	41324	4	Index	15
290.4250000000000	0	n/a	174256	KeyDown	41324	4	Index	15
290.5983333333334	0	n/a	174360	KeyDown	41324	1	Little	15
290.9750000000000	0	n/a	174586	KeyDown	41324	3	Middle	15
291.2333333333333	0	n/a	174741	KeyDown	41324	2	Ring	15
291.4566666666667	0	n/a	174875	KeyDown	41324	4	Index	15
291.9216666666667	0	n/a	175154	KeyDown	41324	4	Index	15
292.1700000000000	0	n/a	175303	KeyDown	41324	1	Little	15
292.4716666666667	0	n/a	175484	KeyDown	41324	3	Middle	15
292.6066666666667	0	n/a	175565	KeyDown	41324	2	Ring	15
292.7583333333333	0	n/a	175656	KeyDown	41324	4	Index	15
293.0250000000000	0	n/a	175816	KeyDown	41324	4	Index	15
293.4100000000000	0	n/a	176047	KeyDown	41324	1	Little	15
293.6550000000000	0	n/a	176194	KeyDown	41324	3	Middle	15
293.8200000000000	0	n/a	176293	KeyDown	41324	2	Ring	15
294.0116666666667	0	n/a	176408	KeyDown	41324	4	Index	15
294.3716666666667	0	n/a	176624	KeyDown	41324	4	Index	15
294.4950000000000	0	n/a	176698	StopPractice	41324	n/a	n/a	15
294.4966666666667	0	n/a	176699	StartRest	XXXXX	n/a	n/a	15
304.5316666666667	0	n/a	182720	StopRest	XXXXX	n/a	n/a	15
304.5333333333334	0	UPPT001	182721	StartPractice	41324	n/a	n/a	16
304.9950000000000	0	n/a	182998	KeyDown	41324	4	Index	16
305.1650000000000	0	n/a	183100	KeyDown	41324	1	Little	16
305.3300000000000	0	n/a	183199	KeyDown	41324	3	Middle	16
305.4900000000000	0	n/a	183295	KeyDown	41324	2	Ring	16
305.6150000000000	0	n/a	183370	KeyDown	41324	4	Index	16
305.9166666666667	0	n/a	183551	KeyDown	41324	4	Index	16
306.0733333333334	0	n/a	183645	KeyDown	41324	1	Little	16
306.2666666666667	0	n/a	183761	KeyDown	41324	3	Middle	16
306.4066666666667	0	n/a	183845	KeyDown	41324	2	Ring	16
306.5416666666667	0	n/a	183926	KeyDown	41324	4	Index	16
306.8500000000000	0	n/a	184111	KeyDown	41324	4	Index	16
307.0800000000000	0	n/a	184249	KeyDown	41324	1	Little	16
307.2816666666667	0	n/a	184370	KeyDown	41324	3	Middle	16
307.4516666666667	0	n/a	184472	KeyDown	41324	2	Ring	16
307.5650000000000	0	n/a	184540	KeyDown	41324	4	Index	16
307.8766666666667	0	n/a	184727	KeyDown	41324	4	Index	16
308.1666666666667	0	n/a	184901	KeyDown	41324	1	Little	16
308.4200000000000	0	n/a	185053	KeyDown	41324	3	Middle	16
308.7750000000000	0	n/a	185266	KeyDown	41324	2	Ring	16
308.9966666666667	0	n/a	185399	KeyDown	41324	4	Index	16
309.3000000000000	0	n/a	185581	KeyDown	41324	4	Index	16
309.4533333333334	0	n/a	185673	KeyDown	41324	1	Little	16
309.7050000000000	0	n/a	185824	KeyDown	41324	3	Middle	16
309.8683333333333	0	n/a	185922	KeyDown	41324	2	Ring	16
310.0233333333334	0	n/a	186015	KeyDown	41324	4	Index	16
310.4500000000000	0	n/a	186271	KeyDown	41324	4	Index	16
310.6316666666667	0	n/a	186380	KeyDown	41324	1	Little	16
310.9516666666667	0	n/a	186572	KeyDown	41324	3	Middle	16
311.1033333333334	0	n/a	186663	KeyDown	41324	2	Ring	16
311.2500000000000	0	n/a	186751	KeyDown	41324	4	Index	16
311.5533333333333	0	n/a	186933	KeyDown	41324	4	Index	16
311.8216666666667	0	n/a	187094	KeyDown	41324	1	Little	16
312.0750000000000	0	n/a	187246	KeyDown	41324	3	Middle	16
312.2483333333333	0	n/a	187350	KeyDown	41324	2	Ring	16
312.3933333333334	0	n/a	187437	KeyDown	41324	4	Index	16
312.8200000000000	0	n/a	187693	KeyDown	41324	4	Index	16
313.0750000000000	0	n/a	187846	KeyDown	41324	1	Little	16
313.3716666666667	0	n/a	188024	KeyDown	41324	3	Middle	16
313.5266666666667	0	n/a	188117	KeyDown	41324	2	Ring	16
313.6516666666667	0	n/a	188192	KeyDown	41324	4	Index	16
314.0766666666667	0	n/a	188447	KeyDown	41324	4	Index	16
314.3566666666667	0	n/a	188615	KeyDown	41324	1	Little	16
314.5716666666667	0	n/a	188744	StopPractice	41324	n/a	n/a	16
314.5733333333334	0	n/a	188745	StartRest	XXXXX	n/a	n/a	16
324.6066666666667	0	n/a	194765	StopRest	XXXXX	n/a	n/a	16
324.6083333333333	0	UPPT001	194766	StartPractice	41324	n/a	n/a	17
325.1566666666667	0	n/a	195095	KeyDown	41324	4	Index	17
325.5250000000000	0	n/a	195316	KeyDown	41324	3	Middle	17
326.4416666666667	0	n/a	195866	KeyDown	41324	1	Little	17
326.7400000000000	0	n/a	196045	KeyDown	41324	3	Middle	17
327.0900000000000	0	n/a	196255	KeyDown	41324	2	Ring	17
327.2666666666667	0	n/a	196361	KeyDown	41324	4	Index	17
327.5600000000000	0	n/a	196537	KeyDown	41324	4	Index	17
327.7300000000000	0	n/a	196639	KeyDown	41324	1	Little	17
327.9550000000000	0	n/a	196774	KeyDown	41324	3	Middle	17
328.1350000000000	0	n/a	196882	KeyDown	41324	2	Ring	17
328.2816666666667	0	n/a	196970	KeyDown	41324	4	Index	17
328.6566666666667	0	n/a	197195	KeyDown	41324	4	Index	17
329.0950000000000	0	n/a	197458	KeyDown	41324	1	Little	17
329.3850000000000	0	n/a	197632	KeyDown	41324	3	Middle	17
329.8366666666667	0	n/a	197903	KeyDown	41324	2	Ring	17
330.0333333333334	0	n/a	198021	KeyDown	41324	4	Index	17
330.2816666666667	0	n/a	198170	KeyDown	41324	4	Index	17
330.5150000000000	0	n/a	198310	KeyDown	41324	1	Little	17
330.7550000000000	0	n/a	198454	KeyDown	41324	3	Middle	17
330.9216666666667	0	n/a	198554	KeyDown	41324	2	Ring	17
331.0700000000000	0	n/a	198643	KeyDown	41324	4	Index	17
331.2950000000000	0	n/a	198778	KeyDown	41324	4	Index	17
331.6350000000000	0	n/a	198982	KeyDown	41324	1	Little	17
331.8833333333334	0	n/a	199131	KeyDown	41324	3	Middle	17
332.0466666666667	0	n/a	199229	KeyDown	41324	2	Ring	17
332.2166666666667	0	n/a	199331	KeyDown	41324	4	Index	17
332.6066666666667	0	n/a	199565	KeyDown	41324	4	Index	17
332.9550000000000	0	n/a	199774	KeyDown	41324	1	Little	17
333.2366666666667	0	n/a	199943	KeyDown	41324	3	Middle	17
333.4200000000000	0	n/a	200053	KeyDown	41324	2	Ring	17
333.5966666666667	0	n/a	200159	KeyDown	41324	4	Index	17
333.9666666666667	0	n/a	200381	KeyDown	41324	4	Index	17
334.4683333333334	0	n/a	200682	KeyDown	41324	1	Little	17
334.6466666666667	0	n/a	200789	StopPractice	41324	n/a	n/a	17
334.6483333333334	0	n/a	200790	StartRest	XXXXX	n/a	n/a	17
344.6800000000000	0	n/a	206809	StopRest	XXXXX	n/a	n/a	17
344.6816666666667	0	UPPT001	206810	StartPractice	41324	n/a	n/a	18
345.3316666666667	0	n/a	207200	KeyDown	41324	4	Index	18
345.5350000000000	0	n/a	207322	KeyDown	41324	1	Little	18
345.8616666666667	0	n/a	207518	KeyDown	41324	3	Middle	18
346.0566666666667	0	n/a	207635	KeyDown	41324	2	Ring	18
346.2500000000000	0	n/a	207751	KeyDown	41324	4	Index	18
346.5383333333334	0	n/a	207924	KeyDown	41324	4	Index	18
346.7283333333334	0	n/a	208038	KeyDown	41324	1	Little	18
346.9283333333333	0	n/a	208158	KeyDown	41324	3	Middle	18
347.0883333333334	0	n/a	208254	KeyDown	41324	2	Ring	18
347.2383333333333	0	n/a	208344	KeyDown	41324	4	Index	18
347.5783333333334	0	n/a	208548	KeyDown	41324	4	Index	18
347.7883333333334	0	n/a	208674	KeyDown	41324	1	Little	18
348.0500000000000	0	n/a	208831	KeyDown	41324	3	Middle	18
348.2100000000000	0	n/a	208927	KeyDown	41324	2	Ring	18
348.3916666666667	0	n/a	209036	KeyDown	41324	4	Index	18
348.8733333333333	0	n/a	209325	KeyDown	41324	4	Index	18
349.2433333333333	0	n/a	209547	KeyDown	41324	1	Little	18
349.4633333333334	0	n/a	209679	KeyDown	41324	3	Middle	18
349.6416666666667	0	n/a	209786	KeyDown	41324	2	Ring	18
349.9150000000000	0	n/a	209950	KeyDown	41324	4	Index	18
350.2833333333334	0	n/a	210171	KeyDown	41324	4	Index	18
350.5133333333334	0	n/a	210309	KeyDown	41324	1	Little	18
350.7350000000000	0	n/a	210442	KeyDown	41324	3	Middle	18
350.8433333333334	0	n/a	210507	KeyDown	41324	2	Ring	18
351.1116666666667	0	n/a	210668	KeyDown	41324	4	Index	18
351.6300000000000	0	n/a	210979	KeyDown	41324	4	Index	18
352.1483333333334	0	n/a	211290	KeyDown	41324	1	Little	18
352.4900000000000	0	n/a	211495	KeyDown	41324	3	Middle	18
352.6433333333334	0	n/a	211587	KeyDown	41324	2	Ring	18
352.8366666666667	0	n/a	211703	KeyDown	41324	4	Index	18
353.2383333333333	0	n/a	211944	KeyDown	41324	4	Index	18
353.5783333333334	0	n/a	212148	KeyDown	41324	1	Little	18
353.7400000000000	0	n/a	212245	KeyDown	41324	3	Middle	18
353.9133333333334	0	n/a	212349	KeyDown	41324	2	Ring	18
354.0833333333334	0	n/a	212451	KeyDown	41324	4	Index	18
354.5433333333334	0	n/a	212727	KeyDown	41324	4	Index	18
354.7200000000000	0	n/a	212833	StopPractice	41324	n/a	n/a	18
354.7216666666667	0	n/a	212834	StartRest	XXXXX	n/a	n/a	18
364.7566666666667	0	n/a	218855	StopRest	XXXXX	n/a	n/a	18
364.7583333333334	0	UPPT001	218856	StartPractice	41324	n/a	n/a	19
365.4250000000000	0	n/a	219256	KeyDown	41324	4	Index	19
365.6216666666667	0	n/a	219374	KeyDown	41324	1	Little	19
365.8500000000000	0	n/a	219511	KeyDown	41324	3	Middle	19
366.0650000000000	0	n/a	219640	KeyDown	41324	2	Ring	19
366.2683333333334	0	n/a	219762	KeyDown	41324	4	Index	19
366.5500000000000	0	n/a	219931	KeyDown	41324	4	Index	19
366.8850000000000	0	n/a	220132	KeyDown	41324	1	Little	19
367.1050000000000	0	n/a	220264	KeyDown	41324	3	Middle	19
367.2616666666667	0	n/a	220358	KeyDown	41324	2	Ring	19
367.4416666666667	0	n/a	220466	KeyDown	41324	4	Index	19
367.8300000000000	0	n/a	220699	KeyDown	41324	4	Index	19
368.0450000000000	0	n/a	220828	KeyDown	41324	1	Little	19
368.2466666666667	0	n/a	220949	KeyDown	41324	3	Middle	19
368.4016666666667	0	n/a	221042	KeyDown	41324	2	Ring	19
368.5416666666667	0	n/a	221126	KeyDown	41324	4	Index	19
369.0733333333334	0	n/a	221445	KeyDown	41324	4	Index	19
369.2866666666667	0	n/a	221573	KeyDown	41324	1	Little	19
369.5550000000000	0	n/a	221734	KeyDown	41324	3	Middle	19
369.7083333333334	0	n/a	221826	KeyDown	41324	2	Ring	19
369.8366666666667	0	n/a	221903	KeyDown	41324	4	Index	19
370.2116666666667	0	n/a	222128	KeyDown	41324	4	Index	19
370.3983333333334	0	n/a	222240	KeyDown	41324	1	Little	19
371.0600000000000	0	n/a	222637	KeyDown	41324	3	Middle	19
371.2000000000000	0	n/a	222721	KeyDown	41324	2	Ring	19
371.3316666666667	0	n/a	222800	KeyDown	41324	4	Index	19
371.6416666666667	0	n/a	222986	KeyDown	41324	4	Index	19
371.9866666666667	0	n/a	223193	KeyDown	41324	1	Little	19
372.2466666666667	0	n/a	223349	KeyDown	41324	3	Middle	19
372.4000000000000	0	n/a	223441	KeyDown	41324	2	Ring	19
372.5450000000000	0	n/a	223528	KeyDown	41324	4	Index	19
372.8683333333333	0	n/a	223722	KeyDown	41324	4	Index	19
373.1450000000000	0	n/a	223888	KeyDown	41324	1	Little	19
373.5316666666667	0	n/a	224120	KeyDown	41324	3	Middle	19
373.6616666666667	0	n/a	224198	KeyDown	41324	2	Ring	19
373.7850000000000	0	n/a	224272	KeyDown	41324	4	Index	19
374.1216666666667	0	n/a	224474	KeyDown	41324	4	Index	19
374.2900000000000	0	n/a	224575	KeyDown	41324	1	Little	19
374.7016666666667	0	n/a	224822	KeyDown	41324	3	Middle	19
374.7966666666667	0	n/a	224879	StopPractice	41324	n/a	n/a	19
374.7983333333333	0	n/a	224880	StartRest	XXXXX	n/a	n/a	19
384.8300000000000	0	n/a	230899	StopRest	XXXXX	n/a	n/a	19
384.8316666666667	0	UPPT001	230900	StartPractice	41324	n/a	n/a	20
385.3550000000000	0	n/a	231214	KeyDown	41324	4	Index	20
385.5600000000000	0	n/a	231337	KeyDown	41324	1	Little	20
385.7183333333334	0	n/a	231432	KeyDown	41324	3	Middle	20
385.8516666666667	0	n/a	231512	KeyDown	41324	2	Ring	20
385.9800000000000	0	n/a	231589	KeyDown	41324	4	Index	20
386.3066666666667	0	n/a	231785	KeyDown	41324	4	Index	20
386.4333333333333	0	n/a	231861	KeyDown	41324	1	Little	20
386.6283333333333	0	n/a	231978	KeyDown	41324	3	Middle	20
386.7983333333333	0	n/a	232080	KeyDown	41324	2	Ring	20
387.1083333333333	0	n/a	232266	KeyDown	41324	4	Index	20
387.4400000000000	0	n/a	232465	KeyDown	41324	4	Index	20
387.6216666666667	0	n/a	232574	KeyDown	41324	1	Little	20
387.9100000000000	0	n/a	232747	KeyDown	41324	3	Middle	20
388.0600000000000	0	n/a	232837	KeyDown	41324	2	Ring	20
388.1900000000000	0	n/a	232915	KeyDown	41324	4	Index	20
388.5583333333333	0	n/a	233136	KeyDown	41324	4	Index	20
388.8650000000000	0	n/a	233320	KeyDown	41324	1	Little	20
389.0650000000000	0	n/a	233440	KeyDown	41324	4	Index	20
389.5000000000000	0	n/a	233701	KeyDown	41324	3	Middle	20
389.6100000000000	0	n/a	233767	KeyDown	41324	2	Ring	20
389.7650000000000	0	n/a	233860	KeyDown	41324	4	Index	20
390.0850000000000	0	n/a	234052	KeyDown	41324	4	Index	20
390.4500000000000	0	n/a	234271	KeyDown	41324	1	Little	20
390.6383333333334	0	n/a	234384	KeyDown	41324	3	Middle	20
391.2066666666667	0	n/a	234725	KeyDown	41324	2	Ring	20
391.3500000000000	0	n/a	234811	KeyDown	41324	4	Index	20
391.6783333333333	0	n/a	235008	KeyDown	41324	4	Index	20
391.8683333333333	0	n/a	235122	KeyDown	41324	1	Little	20
392.1233333333333	0	n/a	235275	KeyDown	41324	3	Middle	20
392.2583333333334	0	n/a	235356	KeyDown	41324	2	Ring	20
392.3800000000001	0	n/a	235429	KeyDown	41324	4	Index	20
392.7400000000000	0	n/a	235645	KeyDown	41324	4	Index	20
392.9616666666667	0	n/a	235778	KeyDown	41324	1	Little	20
393.1733333333333	0	n/a	235905	KeyDown	41324	3	Middle	20
393.3100000000000	0	n/a	235987	KeyDown	41324	2	Ring	20
393.4150000000000	0	n/a	236050	KeyDown	41324	4	Index	20
393.7683333333334	0	n/a	236262	KeyDown	41324	4	Index	20
393.9483333333334	0	n/a	236370	KeyDown	41324	1	Little	20
394.2783333333334	0	n/a	236568	KeyDown	41324	3	Middle	20
394.3916666666667	0	n/a	236636	KeyDown	41324	2	Ring	20
394.5883333333334	0	n/a	236754	KeyDown	41324	4	Index	20
394.8700000000000	0	n/a	236923	StopPractice	41324	n/a	n/a	20
394.8716666666667	0	n/a	236924	StartRest	XXXXX	n/a	n/a	20
404.9050000000000	0	n/a	242944	StopRest	XXXXX	n/a	n/a	20
404.9066666666667	0	UPPT001	242945	StartPractice	41324	n/a	n/a	21
405.4600000000000	0	n/a	243277	KeyDown	41324	4	Index	21
405.6483333333334	0	n/a	243390	KeyDown	41324	1	Little	21
405.8100000000000	0	n/a	243487	KeyDown	41324	3	Middle	21
405.9683333333334	0	n/a	243582	KeyDown	41324	2	Ring	21
406.1083333333333	0	n/a	243666	KeyDown	41324	4	Index	21
406.3750000000000	0	n/a	243826	KeyDown	41324	4	Index	21
406.5500000000000	0	n/a	243931	KeyDown	41324	1	Little	21
406.7400000000000	0	n/a	244045	KeyDown	41324	3	Middle	21
407.0800000000000	0	n/a	244249	KeyDown	41324	2	Ring	21
407.3016666666667	0	n/a	244382	KeyDown	41324	4	Index	21
407.6933333333334	0	n/a	244617	KeyDown	41324	4	Index	21
408.0533333333333	0	n/a	244833	KeyDown	41324	1	Little	21
408.3283333333334	0	n/a	244998	KeyDown	41324	3	Middle	21
408.7066666666667	0	n/a	245225	KeyDown	41324	2	Ring	21
408.8483333333334	0	n/a	245310	KeyDown	41324	4	Index	21
409.1400000000000	0	n/a	245485	KeyDown	41324	4	Index	21
409.3783333333334	0	n/a	245628	KeyDown	41324	1	Little	21
409.5900000000000	0	n/a	245755	KeyDown	41324	3	Middle	21
409.8033333333333	0	n/a	245883	KeyDown	41324	2	Ring	21
409.9533333333334	0	n/a	245973	KeyDown	41324	4	Index	21
410.2950000000000	0	n/a	246178	KeyDown	41324	4	Index	21
410.5016666666667	0	n/a	246302	KeyDown	41324	1	Little	21
410.9966666666667	0	n/a	246599	KeyDown	41324	3	Middle	21
411.1650000000000	0	n/a	246700	KeyDown	41324	2	Ring	21
411.2383333333333	0	n/a	246744	KeyDown	41324	4	Index	21
411.7800000000000	0	n/a	247069	KeyDown	41324	4	Index	21
412.0366666666667	0	n/a	247223	KeyDown	41324	1	Little	21
412.3950000000000	0	n/a	247438	KeyDown	41324	3	Middle	21
412.5733333333334	0	n/a	247545	KeyDown	41324	2	Ring	21
412.7266666666667	0	n/a	247637	KeyDown	41324	4	Index	21
413.1066666666667	0	n/a	247865	KeyDown	41324	4	Index	21
413.4850000000000	0	n/a	248092	KeyDown	41324	1	Little	21
413.8383333333334	0	n/a	248304	KeyDown	41324	3	Middle	21
414.0083333333334	0	n/a	248406	KeyDown	41324	2	Ring	21
414.3000000000000	0	n/a	248581	KeyDown	41324	4	Index	21
414.6633333333334	0	n/a	248799	KeyDown	41324	4	Index	21
414.8200000000001	0	n/a	248893	KeyDown	41324	1	Little	21
414.9450000000001	0	n/a	248968	StopPractice	41324	n/a	n/a	21
414.9466666666667	0	n/a	248969	StartRest	XXXXX	n/a	n/a	21
424.9800000000000	0	n/a	254989	StopRest	XXXXX	n/a	n/a	21
424.9816666666667	0	UPPT001	254990	StartPractice	41324	n/a	n/a	22
425.4566666666667	0	n/a	255275	KeyDown	41324	4	Index	22
425.6200000000000	0	n/a	255373	KeyDown	41324	1	Little	22
425.7883333333334	0	n/a	255474	KeyDown	41324	3	Middle	22
425.9066666666667	0	n/a	255545	KeyDown	41324	2	Ring	22
426.0283333333334	0	n/a	255618	KeyDown	41324	4	Index	22
426.2950000000000	0	n/a	255778	KeyDown	41324	4	Index	22
426.4750000000000	0	n/a	255886	KeyDown	41324	1	Little	22
426.6333333333334	0	n/a	255981	KeyDown	41324	3	Middle	22
426.8133333333333	0	n/a	256089	KeyDown	41324	2	Ring	22
426.9016666666667	0	n/a	256142	KeyDown	41324	4	Index	22
427.2683333333334	0	n/a	256362	KeyDown	41324	4	Index	22
427.4616666666667	0	n/a	256478	KeyDown	41324	1	Little	22
427.6400000000000	0	n/a	256585	KeyDown	41324	3	Middle	22
427.8033333333333	0	n/a	256683	KeyDown	41324	2	Ring	22
427.9000000000000	0	n/a	256741	KeyDown	41324	4	Index	22
428.1816666666667	0	n/a	256910	KeyDown	41324	4	Index	22
428.4600000000000	0	n/a	257077	KeyDown	41324	1	Little	22
428.6533333333334	0	n/a	257193	KeyDown	41324	3	Middle	22
428.8283333333334	0	n/a	257298	KeyDown	41324	2	Ring	22
428.9883333333333	0	n/a	257394	KeyDown	41324	4	Index	22
429.4233333333333	0	n/a	257655	KeyDown	41324	4	Index	22
429.6600000000000	0	n/a	257797	KeyDown	41324	4	Index	22
429.7533333333334	0	n/a	257853	KeyDown	41324	1	Little	22
430.3283333333334	0	n/a	258198	KeyDown	41324	1	Little	22
430.6700000000000	0	n/a	258403	KeyDown	41324	3	Middle	22
430.8750000000000	0	n/a	258526	KeyDown	41324	2	Ring	22
431.0400000000000	0	n/a	258625	KeyDown	41324	4	Index	22
431.4133333333334	0	n/a	258849	KeyDown	41324	4	Index	22
431.6483333333334	0	n/a	258990	KeyDown	41324	1	Little	22
431.8583333333333	0	n/a	259116	KeyDown	41324	3	Middle	22
432.0133333333334	0	n/a	259209	KeyDown	41324	2	Ring	22
432.0983333333334	0	n/a	259260	KeyDown	41324	4	Index	22
432.4900000000000	0	n/a	259495	KeyDown	41324	4	Index	22
432.8300000000000	0	n/a	259699	KeyDown	41324	1	Little	22
433.0833333333334	0	n/a	259851	KeyDown	41324	3	Middle	22
433.2600000000000	0	n/a	259957	KeyDown	41324	2	Ring	22
433.4000000000000	0	n/a	260041	KeyDown	41324	4	Index	22
433.7600000000000	0	n/a	260257	KeyDown	41324	4	Index	22
434.0116666666667	0	n/a	260408	KeyDown	41324	1	Little	22
434.2433333333333	0	n/a	260547	KeyDown	41324	3	Middle	22
434.4150000000000	0	n/a	260650	KeyDown	41324	2	Ring	22
434.5883333333334	0	n/a	260754	KeyDown	41324	4	Index	22
434.9550000000000	0	n/a	260974	KeyDown	41324	4	Index	22
435.0200000000000	0	n/a	261013	StopPractice	41324	n/a	n/a	22
435.0216666666667	0	n/a	261014	StartRest	XXXXX	n/a	n/a	22
445.0550000000000	0	n/a	267034	StopRest	XXXXX	n/a	n/a	22
445.0566666666667	0	UPPT001	267035	StartPractice	41324	n/a	n/a	23
445.7000000000000	0	n/a	267421	KeyDown	41324	4	Index	23
445.8950000000000	0	n/a	267538	KeyDown	41324	1	Little	23
446.0700000000001	0	n/a	267643	KeyDown	41324	3	Middle	23
446.2250000000000	0	n/a	267736	KeyDown	41324	2	Ring	23
446.3750000000001	0	n/a	267826	KeyDown	41324	4	Index	23
446.6700000000000	0	n/a	268003	KeyDown	41324	4	Index	23
446.8300000000000	0	n/a	268099	KeyDown	41324	1	Little	23
447.0066666666667	0	n/a	268205	KeyDown	41324	3	Middle	23
447.1783333333333	0	n/a	268308	KeyDown	41324	2	Ring	23
447.2616666666667	0	n/a	268358	KeyDown	41324	4	Index	23
447.6116666666667	0	n/a	268568	KeyDown	41324	4	Index	23
447.7666666666667	0	n/a	268661	KeyDown	41324	1	Little	23
447.9650000000000	0	n/a	268780	KeyDown	41324	3	Middle	23
448.1083333333333	0	n/a	268866	KeyDown	41324	2	Ring	23
448.2616666666667	0	n/a	268958	KeyDown	41324	4	Index	23
448.8283333333334	0	n/a	269298	KeyDown	41324	4	Index	23
449.0233333333334	0	n/a	269415	KeyDown	41324	1	Little	23
449.2333333333333	0	n/a	269541	KeyDown	41324	3	Middle	23
449.4533333333334	0	n/a	269673	KeyDown	41324	2	Ring	23
449.7366666666667	0	n/a	269843	KeyDown	41324	4	Index	23
450.1750000000000	0	n/a	270106	KeyDown	41324	4	Index	23
450.3850000000000	0	n/a	270232	KeyDown	41324	1	Little	23
450.6733333333333	0	n/a	270405	KeyDown	41324	3	Middle	23
450.8416666666667	0	n/a	270506	KeyDown	41324	2	Ring	23
451.1950000000001	0	n/a	270718	KeyDown	41324	4	Index	23
451.6300000000001	0	n/a	270979	KeyDown	41324	4	Index	23
451.9733333333334	0	n/a	271185	KeyDown	41324	1	Little	23
452.3016666666667	0	n/a	271382	KeyDown	41324	3	Middle	23
452.4600000000000	0	n/a	271477	KeyDown	41324	2	Ring	23
452.5983333333334	0	n/a	271560	KeyDown	41324	4	Index	23
452.9533333333334	0	n/a	271773	KeyDown	41324	4	Index	23
453.2850000000000	0	n/a	271972	KeyDown	41324	1	Little	23
453.4233333333333	0	n/a	272055	KeyDown	41324	3	Middle	23
453.5700000000001	0	n/a	272143	KeyDown	41324	2	Ring	23
453.8050000000000	0	n/a	272284	KeyDown	41324	4	Index	23
454.1483333333334	0	n/a	272490	KeyDown	41324	4	Index	23
454.3500000000000	0	n/a	272611	KeyDown	41324	1	Little	23
454.6750000000000	0	n/a	272806	KeyDown	41324	3	Middle	23
454.8066666666667	0	n/a	272885	KeyDown	41324	2	Ring	23
454.9333333333333	0	n/a	272961	KeyDown	41324	4	Index	23
455.0950000000000	0	n/a	273058	StopPractice	41324	n/a	n/a	23
455.0966666666667	0	n/a	273059	StartRest	XXXXX	n/a	n/a	23
465.1283333333334	0	n/a	279078	StopRest	XXXXX	n/a	n/a	23
465.1300000000001	0	UPPT001	279079	StartPractice	41324	n/a	n/a	24
465.6916666666667	0	n/a	279416	KeyDown	41324	4	Index	24
465.8583333333333	0	n/a	279516	KeyDown	41324	1	Little	24
466.0316666666667	0	n/a	279620	KeyDown	41324	3	Middle	24
466.1566666666667	0	n/a	279695	KeyDown	41324	2	Ring	24
466.3016666666667	0	n/a	279782	KeyDown	41324	4	Index	24
466.5883333333334	0	n/a	279954	KeyDown	41324	4	Index	24
466.9033333333334	0	n/a	280143	KeyDown	41324	1	Little	24
467.0583333333333	0	n/a	280236	KeyDown	41324	3	Middle	24
467.2416666666667	0	n/a	280346	KeyDown	41324	2	Ring	24
467.3816666666667	0	n/a	280430	KeyDown	41324	4	Index	24
467.7800000000000	0	n/a	280669	KeyDown	41324	4	Index	24
468.2250000000000	0	n/a	280936	KeyDown	41324	1	Little	24
468.3766666666667	0	n/a	281027	KeyDown	41324	3	Middle	24
468.5916666666667	0	n/a	281156	KeyDown	41324	2	Ring	24
468.7633333333334	0	n/a	281259	KeyDown	41324	4	Index	24
469.0933333333334	0	n/a	281457	KeyDown	41324	4	Index	24
469.2983333333333	0	n/a	281580	KeyDown	41324	1	Little	24
469.4583333333334	0	n/a	281676	KeyDown	41324	3	Middle	24
469.6083333333333	0	n/a	281766	KeyDown	41324	2	Ring	24
469.7200000000000	0	n/a	281833	KeyDown	41324	4	Index	24
469.9950000000000	0	n/a	281998	KeyDown	41324	4	Index	24
470.2516666666667	0	n/a	282152	KeyDown	41324	1	Little	24
470.4833333333333	0	n/a	282291	KeyDown	41324	3	Middle	24
470.6116666666667	0	n/a	282368	KeyDown	41324	2	Ring	24
470.7350000000000	0	n/a	282442	KeyDown	41324	4	Index	24
470.9883333333333	0	n/a	282594	KeyDown	41324	4	Index	24
471.1233333333334	0	n/a	282675	KeyDown	41324	1	Little	24
471.4383333333334	0	n/a	282864	KeyDown	41324	3	Middle	24
471.5966666666667	0	n/a	282959	KeyDown	41324	2	Ring	24
471.7383333333333	0	n/a	283044	KeyDown	41324	4	Index	24
472.0616666666667	0	n/a	283238	KeyDown	41324	4	Index	24
472.5283333333334	0	n/a	283518	KeyDown	41324	1	Little	24
472.8483333333334	0	n/a	283710	KeyDown	41324	3	Middle	24
473.0216666666667	0	n/a	283814	KeyDown	41324	2	Ring	24
473.0866666666667	0	n/a	283853	KeyDown	41324	4	Index	24
473.4716666666667	0	n/a	284084	KeyDown	41324	4	Index	24
473.6533333333334	0	n/a	284193	KeyDown	41324	1	Little	24
473.8616666666667	0	n/a	284318	KeyDown	41324	3	Middle	24
473.9933333333333	0	n/a	284397	KeyDown	41324	2	Ring	24
474.0633333333334	0	n/a	284439	KeyDown	41324	4	Index	24
474.4416666666667	0	n/a	284666	KeyDown	41324	4	Index	24
474.6383333333334	0	n/a	284784	KeyDown	41324	1	Little	24
474.7783333333334	0	n/a	284868	KeyDown	41324	3	Middle	24
475.1683333333334	0	n/a	285102	StopPractice	41324	n/a	n/a	24
475.1700000000000	0	n/a	285103	StartRest	XXXXX	n/a	n/a	24
485.2050000000000	0	n/a	291124	StopRest	XXXXX	n/a	n/a	24
485.2066666666667	0	UPPT001	291125	StartPractice	41324	n/a	n/a	25
485.6633333333334	0	n/a	291399	KeyDown	41324	4	Index	25
485.8333333333334	0	n/a	291501	KeyDown	41324	1	Little	25
485.9800000000000	0	n/a	291589	KeyDown	41324	3	Middle	25
486.1216666666667	0	n/a	291674	KeyDown	41324	2	Ring	25
486.2450000000000	0	n/a	291748	KeyDown	41324	4	Index	25
486.5100000000000	0	n/a	291907	KeyDown	41324	4	Index	25
486.6700000000000	0	n/a	292003	KeyDown	41324	1	Little	25
486.8283333333334	0	n/a	292098	KeyDown	41324	3	Middle	25
486.9916666666667	0	n/a	292196	KeyDown	41324	4	Index	25
487.7333333333333	0	n/a	292641	KeyDown	41324	4	Index	25
488.0400000000000	0	n/a	292825	KeyDown	41324	1	Little	25
488.4600000000000	0	n/a	293077	KeyDown	41324	3	Middle	25
488.5933333333334	0	n/a	293157	KeyDown	41324	2	Ring	25
488.7050000000000	0	n/a	293224	KeyDown	41324	4	Index	25
488.9933333333333	0	n/a	293397	KeyDown	41324	4	Index	25
489.2600000000000	0	n/a	293557	KeyDown	41324	1	Little	25
489.5900000000000	0	n/a	293755	KeyDown	41324	3	Middle	25
489.7733333333334	0	n/a	293865	KeyDown	41324	2	Ring	25
489.9016666666667	0	n/a	293942	KeyDown	41324	4	Index	25
490.2233333333334	0	n/a	294135	KeyDown	41324	4	Index	25
490.6466666666667	0	n/a	294389	KeyDown	41324	1	Little	25
490.8400000000000	0	n/a	294505	KeyDown	41324	3	Middle	25
491.0433333333334	0	n/a	294627	KeyDown	41324	2	Ring	25
491.3283333333334	0	n/a	294798	KeyDown	41324	4	Index	25
491.7466666666667	0	n/a	295049	KeyDown	41324	4	Index	25
492.0233333333334	0	n/a	295215	KeyDown	41324	1	Little	25
492.2083333333334	0	n/a	295326	KeyDown	41324	3	Middle	25
492.6733333333333	0	n/a	295605	KeyDown	41324	2	Ring	25
492.8433333333334	0	n/a	295707	KeyDown	41324	4	Index	25
493.1900000000001	0	n/a	295915	KeyDown	41324	4	Index	25
493.3900000000000	0	n/a	296035	KeyDown	41324	1	Little	25
493.5933333333334	0	n/a	296157	KeyDown	41324	3	Middle	25
494.0200000000000	0	n/a	296413	KeyDown	41324	2	Ring	25
494.1850000000001	0	n/a	296512	KeyDown	41324	4	Index	25
494.6316666666667	0	n/a	296780	KeyDown	41324	4	Index	25
494.7850000000000	0	n/a	296872	KeyDown	41324	1	Little	25
495.0933333333334	0	n/a	297057	KeyDown	41324	3	Middle	25
495.2450000000000	0	n/a	297148	StopPractice	41324	n/a	n/a	25
495.2466666666667	0	n/a	297149	StartRest	XXXXX	n/a	n/a	25
505.2800000000000	0	n/a	303169	StopRest	XXXXX	n/a	n/a	25
505.2816666666667	0	UPPT001	303170	StartPractice	41324	n/a	n/a	26
505.7616666666667	0	n/a	303458	KeyDown	41324	4	Index	26
505.9183333333334	0	n/a	303552	KeyDown	41324	1	Little	26
506.1200000000000	0	n/a	303673	KeyDown	41324	3	Middle	26
506.1900000000001	0	n/a	303715	KeyDown	41324	2	Ring	26
506.3800000000001	0	n/a	303829	KeyDown	41324	4	Index	26
506.7366666666667	0	n/a	304043	KeyDown	41324	4	Index	26
506.9300000000000	0	n/a	304159	KeyDown	41324	1	Little	26
507.1350000000000	0	n/a	304282	KeyDown	41324	3	Middle	26
507.2816666666667	0	n/a	304370	KeyDown	41324	2	Ring	26
507.4033333333334	0	n/a	304443	KeyDown	41324	4	Index	26
507.8233333333334	0	n/a	304695	KeyDown	41324	4	Index	26
507.9750000000000	0	n/a	304786	KeyDown	41324	1	Little	26
508.2050000000000	0	n/a	304924	KeyDown	41324	3	Middle	26
508.7900000000000	0	n/a	305275	KeyDown	41324	2	Ring	26
508.9050000000000	0	n/a	305344	KeyDown	41324	4	Index	26
509.1833333333334	0	n/a	305511	KeyDown	41324	4	Index	26
509.4933333333333	0	n/a	305697	KeyDown	41324	1	Little	26
509.6483333333334	0	n/a	305790	KeyDown	41324	3	Middle	26
509.7850000000000	0	n/a	305872	KeyDown	41324	2	Ring	26
509.9083333333334	0	n/a	305946	KeyDown	41324	4	Index	26
510.3583333333333	0	n/a	306216	KeyDown	41324	4	Index	26
510.6433333333334	0	n/a	306387	KeyDown	41324	1	Little	26
510.8300000000000	0	n/a	306499	KeyDown	41324	3	Middle	26
511.0700000000001	0	n/a	306643	KeyDown	41324	2	Ring	26
511.1983333333334	0	n/a	306720	KeyDown	41324	4	Index	26
511.5900000000000	0	n/a	306955	KeyDown	41324	4	Index	26
511.7633333333334	0	n/a	307059	KeyDown	41324	1	Little	26
512.0116666666667	0	n/a	307208	KeyDown	41324	3	Middle	26
512.2200000000000	0	n/a	307333	KeyDown	41324	2	Ring	26
512.3200000000001	0	n/a	307393	KeyDown	41324	4	Index	26
512.6833333333334	0	n/a	307611	KeyDown	41324	4	Index	26
513.2000000000000	0	n/a	307921	KeyDown	41324	1	Little	26
513.5800000000000	0	n/a	308149	KeyDown	41324	3	Middle	26
513.7100000000000	0	n/a	308227	KeyDown	41324	2	Ring	26
513.8100000000001	0	n/a	308287	KeyDown	41324	4	Index	26
514.3033333333334	0	n/a	308583	KeyDown	41324	4	Index	26
514.4550000000000	0	n/a	308674	KeyDown	41324	1	Little	26
514.7250000000000	0	n/a	308836	KeyDown	41324	3	Middle	26
514.8766666666667	0	n/a	308927	KeyDown	41324	2	Ring	26
514.9600000000000	0	n/a	308977	KeyDown	41324	4	Index	26
515.3200000000001	0	n/a	309193	StopPractice	41324	n/a	n/a	26
515.3216666666667	0	n/a	309194	StartRest	XXXXX	n/a	n/a	26
525.3550000000000	0	n/a	315214	StopRest	XXXXX	n/a	n/a	26
525.3566666666667	0	UPPT001	315215	StartPractice	41324	n/a	n/a	27
525.9900000000000	0	n/a	315595	KeyDown	41324	4	Index	27
526.1483333333333	0	n/a	315690	KeyDown	41324	1	Little	27
526.3800000000000	0	n/a	315829	KeyDown	41324	3	Middle	27
526.5550000000001	0	n/a	315934	KeyDown	41324	2	Ring	27
526.6933333333334	0	n/a	316017	KeyDown	41324	4	Index	27
526.9766666666667	0	n/a	316187	KeyDown	41324	4	Index	27
527.1050000000000	0	n/a	316264	KeyDown	41324	1	Little	27
527.3150000000001	0	n/a	316390	KeyDown	41324	3	Middle	27
527.4716666666667	0	n/a	316484	KeyDown	41324	2	Ring	27
527.6066666666667	0	n/a	316565	KeyDown	41324	4	Index	27
527.9083333333334	0	n/a	316746	KeyDown	41324	4	Index	27
528.2633333333333	0	n/a	316959	KeyDown	41324	1	Little	27
528.5016666666667	0	n/a	317102	KeyDown	41324	3	Middle	27
528.7633333333333	0	n/a	317259	KeyDown	41324	2	Ring	27
529.0583333333334	0	n/a	317436	KeyDown	41324	2	Ring	27
529.1450000000000	0	n/a	317488	KeyDown	41324	4	Index	27
529.5166666666667	0	n/a	317711	KeyDown	41324	4	Index	27
529.6783333333334	0	n/a	317808	KeyDown	41324	1	Little	27
529.8883333333333	0	n/a	317934	KeyDown	41324	3	Middle	27
530.0433333333334	0	n/a	318027	KeyDown	41324	2	Ring	27
530.1816666666667	0	n/a	318110	KeyDown	41324	4	Index	27
530.4750000000000	0	n/a	318286	KeyDown	41324	4	Index	27
530.6533333333334	0	n/a	318393	KeyDown	41324	1	Little	27
530.8683333333333	0	n/a	318522	KeyDown	41324	3	Middle	27
531.0250000000000	0	n/a	318616	KeyDown	41324	2	Ring	27
531.1250000000000	0	n/a	318676	KeyDown	41324	4	Index	27
531.4466666666667	0	n/a	318869	KeyDown	41324	4	Index	27
531.7316666666667	0	n/a	319040	KeyDown	41324	1	Little	27
531.8833333333333	0	n/a	319131	KeyDown	41324	3	Middle	27
531.9883333333333	0	n/a	319194	KeyDown	41324	2	Ring	27
532.1200000000000	0	n/a	319273	KeyDown	41324	4	Index	27
532.4183333333334	0	n/a	319452	KeyDown	41324	4	Index	27
532.6483333333333	0	n/a	319590	KeyDown	41324	1	Little	27
532.8833333333333	0	n/a	319731	KeyDown	41324	3	Middle	27
533.0116666666667	0	n/a	319808	KeyDown	41324	2	Ring	27
533.1283333333333	0	n/a	319878	KeyDown	41324	4	Index	27
533.4100000000001	0	n/a	320047	KeyDown	41324	4	Index	27
533.7600000000000	0	n/a	320257	KeyDown	41324	1	Little	27
534.0833333333334	0	n/a	320451	KeyDown	41324	3	Middle	27
534.2333333333333	0	n/a	320541	KeyDown	41324	2	Ring	27
534.3100000000001	0	n/a	320587	KeyDown	41324	4	Index	27
534.7950000000001	0	n/a	320878	KeyDown	41324	4	Index	27
535.0083333333333	0	n/a	321006	KeyDown	41324	1	Little	27
535.3283333333334	0	n/a	321198	KeyDown	41324	3	Middle	27
535.3950000000000	0	n/a	321238	StopPractice	41324	n/a	n/a	27
535.3966666666666	0	n/a	321239	StartRest	XXXXX	n/a	n/a	27
545.4283333333334	0	n/a	327258	StopRest	XXXXX	n/a	n/a	27
545.4300000000001	0	UPPT001	327259	StartPractice	41324	n/a	n/a	28
546.0750000000000	0	n/a	327646	KeyDown	41324	4	Index	28
546.2233333333334	0	n/a	327735	KeyDown	41324	1	Little	28
546.3866666666667	0	n/a	327833	KeyDown	41324	3	Middle	28
546.5383333333334	0	n/a	327924	KeyDown	41324	2	Ring	28
546.6716666666667	0	n/a	328004	KeyDown	41324	4	Index	28
546.9333333333334	0	n/a	328161	KeyDown	41324	4	Index	28
547.0500000000001	0	n/a	328231	KeyDown	41324	1	Little	28
547.3750000000000	0	n/a	328426	KeyDown	41324	3	Middle	28
547.4716666666667	0	n/a	328484	KeyDown	41324	2	Ring	28
547.6116666666667	0	n/a	328568	KeyDown	41324	4	Index	28
547.8850000000000	0	n/a	328732	KeyDown	41324	4	Index	28
548.1016666666667	0	n/a	328862	KeyDown	41324	1	Little	28
548.4116666666667	0	n/a	329048	KeyDown	41324	3	Middle	28
548.5300000000001	0	n/a	329119	KeyDown	41324	2	Ring	28
548.7033333333334	0	n/a	329223	KeyDown	41324	4	Index	28
549.0550000000001	0	n/a	329434	KeyDown	41324	4	Index	28
549.2166666666667	0	n/a	329531	KeyDown	41324	1	Little	28
549.5350000000001	0	n/a	329722	KeyDown	41324	3	Middle	28
549.6316666666667	0	n/a	329780	KeyDown	41324	2	Ring	28
549.7483333333333	0	n/a	329850	KeyDown	41324	4	Index	28
550.0183333333333	0	n/a	330012	KeyDown	41324	4	Index	28
550.1866666666667	0	n/a	330113	KeyDown	41324	1	Little	28
550.3616666666667	0	n/a	330218	KeyDown	41324	3	Middle	28
550.4983333333333	0	n/a	330300	KeyDown	41324	2	Ring	28
550.6266666666667	0	n/a	330377	KeyDown	41324	4	Index	28
550.9783333333334	0	n/a	330588	KeyDown	41324	1	Little	28
551.3450000000000	0	n/a	330808	KeyDown	41324	1	Little	28
552.0700000000001	0	n/a	331243	KeyDown	41324	4	Index	28
552.4600000000000	0	n/a	331477	KeyDown	41324	1	Little	28
552.7400000000000	0	n/a	331645	KeyDown	41324	3	Middle	28
552.8433333333334	0	n/a	331707	KeyDown	41324	2	Ring	28
552.9650000000000	0	n/a	331780	KeyDown	41324	4	Index	28
553.2983333333334	0	n/a	331980	KeyDown	41324	4	Index	28
553.4400000000001	0	n/a	332065	KeyDown	41324	1	Little	28
553.7500000000000	0	n/a	332251	KeyDown	41324	3	Middle	28
553.8500000000000	0	n/a	332311	KeyDown	41324	2	Ring	28
553.9716666666667	0	n/a	332384	KeyDown	41324	4	Index	28
554.2533333333333	0	n/a	332553	KeyDown	41324	4	Index	28
554.3833333333333	0	n/a	332631	KeyDown	41324	1	Little	28
554.9516666666667	0	n/a	332972	KeyDown	41324	3	Middle	28
555.1100000000000	0	n/a	333067	KeyDown	41324	2	Ring	28
555.2033333333334	0	n/a	333123	KeyDown	41324	4	Index	28
555.4683333333334	0	n/a	333282	StopPractice	41324	n/a	n/a	28
555.4700000000000	0	n/a	333283	StartRest	XXXXX	n/a	n/a	28
565.5033333333333	0	n/a	339303	StopRest	XXXXX	n/a	n/a	28
565.5050000000000	0	UPPT001	339304	StartPractice	41324	n/a	n/a	29
566.0700000000001	0	n/a	339643	KeyDown	41324	4	Index	29
566.4816666666667	0	n/a	339890	KeyDown	41324	1	Little	29
566.6433333333333	0	n/a	339987	KeyDown	41324	3	Middle	29
566.7816666666668	0	n/a	340070	KeyDown	41324	2	Ring	29
566.9583333333334	0	n/a	340176	KeyDown	41324	4	Index	29
567.2533333333333	0	n/a	340353	KeyDown	41324	4	Index	29
567.3783333333333	0	n/a	340428	KeyDown	41324	1	Little	29
567.5483333333334	0	n/a	340530	KeyDown	41324	3	Middle	29
567.6950000000001	0	n/a	340618	KeyDown	41324	2	Ring	29
567.8316666666667	0	n/a	340700	KeyDown	41324	4	Index	29
568.8166666666667	0	n/a	341291	KeyDown	41324	4	Index	29
569.1483333333334	0	n/a	341490	KeyDown	41324	1	Little	29
569.4616666666667	0	n/a	341678	KeyDown	41324	3	Middle	29
569.6533333333334	0	n/a	341793	KeyDown	41324	2	Ring	29
569.7233333333334	0	n/a	341835	KeyDown	41324	4	Index	29
570.1533333333334	0	n/a	342093	KeyDown	41324	4	Index	29
570.5466666666667	0	n/a	342329	KeyDown	41324	1	Little	29
570.7316666666667	0	n/a	342440	KeyDown	41324	3	Middle	29
570.9033333333334	0	n/a	342543	KeyDown	41324	2	Ring	29
571.0133333333333	0	n/a	342609	KeyDown	41324	4	Index	29
571.5450000000001	0	n/a	342928	KeyDown	41324	4	Index	29
571.7066666666667	0	n/a	343025	KeyDown	41324	1	Little	29
571.9416666666667	0	n/a	343166	KeyDown	41324	3	Middle	29
572.0800000000000	0	n/a	343249	KeyDown	41324	2	Ring	29
572.1816666666667	0	n/a	343310	KeyDown	41324	4	Index	29
572.6016666666667	0	n/a	343562	KeyDown	41324	4	Index	29
572.7566666666667	0	n/a	343655	KeyDown	41324	1	Little	29
573.0916666666667	0	n/a	343856	KeyDown	41324	3	Middle	29
573.2033333333334	0	n/a	343923	KeyDown	41324	2	Ring	29
573.3650000000000	0	n/a	344020	KeyDown	41324	4	Index	29
574.0450000000001	0	n/a	344428	KeyDown	41324	4	Index	29
574.3283333333334	0	n/a	344598	KeyDown	41324	1	Little	29
575.1066666666667	0	n/a	345065	KeyDown	41324	3	Middle	29
575.2600000000000	0	n/a	345157	KeyDown	41324	2	Ring	29
575.4283333333334	0	n/a	345258	KeyDown	41324	4	Index	29
575.5433333333334	0	n/a	345327	StopPractice	41324	n/a	n/a	29
575.5450000000001	0	n/a	345328	StartRest	XXXXX	n/a	n/a	29
585.5783333333334	0	n/a	351348	StopRest	XXXXX	n/a	n/a	29
585.5800000000000	0	UPPT001	351349	StartPractice	41324	n/a	n/a	30
586.0866666666667	0	n/a	351653	KeyDown	41324	4	Index	30
586.2383333333333	0	n/a	351744	KeyDown	41324	1	Little	30
586.5950000000000	0	n/a	351958	KeyDown	41324	3	Middle	30
586.7900000000001	0	n/a	352075	KeyDown	41324	4	Index	30
586.8083333333334	0	n/a	352086	KeyDown	41324	2	Ring	30
587.2733333333334	0	n/a	352365	KeyDown	41324	4	Index	30
587.5650000000001	0	n/a	352540	KeyDown	41324	1	Little	30
587.7216666666667	0	n/a	352634	KeyDown	41324	3	Middle	30
587.8516666666667	0	n/a	352712	KeyDown	41324	2	Ring	30
587.9500000000000	0	n/a	352771	KeyDown	41324	4	Index	30
588.4966666666667	0	n/a	353099	KeyDown	41324	4	Index	30
588.6500000000001	0	n/a	353191	KeyDown	41324	1	Little	30
588.8516666666667	0	n/a	353312	KeyDown	41324	3	Middle	30
589.0283333333334	0	n/a	353418	KeyDown	41324	2	Ring	30
589.1416666666667	0	n/a	353486	KeyDown	41324	4	Index	30
589.5633333333334	0	n/a	353739	KeyDown	41324	4	Index	30
589.7416666666667	0	n/a	353846	KeyDown	41324	1	Little	30
589.9383333333334	0	n/a	353964	KeyDown	41324	3	Middle	30
590.0966666666667	0	n/a	354059	KeyDown	41324	2	Ring	30
590.1666666666667	0	n/a	354101	KeyDown	41324	4	Index	30
590.4783333333334	0	n/a	354288	KeyDown	41324	4	Index	30
590.7216666666667	0	n/a	354434	KeyDown	41324	1	Little	30
590.8966666666668	0	n/a	354539	KeyDown	41324	3	Middle	30
591.0383333333334	0	n/a	354624	KeyDown	41324	2	Ring	30
591.0983333333334	0	n/a	354660	KeyDown	41324	4	Index	30
591.6383333333333	0	n/a	354984	KeyDown	41324	4	Index	30
591.7833333333334	0	n/a	355071	KeyDown	41324	1	Little	30
591.9683333333334	0	n/a	355182	KeyDown	41324	3	Middle	30
592.0916666666667	0	n/a	355256	KeyDown	41324	2	Ring	30
592.1933333333334	0	n/a	355317	KeyDown	41324	4	Index	30
592.5966666666667	0	n/a	355559	KeyDown	41324	4	Index	30
592.7416666666667	0	n/a	355646	KeyDown	41324	1	Little	30
593.0316666666668	0	n/a	355820	KeyDown	41324	3	Middle	30
593.1600000000001	0	n/a	355897	KeyDown	41324	2	Ring	30
593.2416666666667	0	n/a	355946	KeyDown	41324	4	Index	30
593.5916666666667	0	n/a	356156	KeyDown	41324	4	Index	30
593.7833333333334	0	n/a	356271	KeyDown	41324	1	Little	30
593.9816666666667	0	n/a	356390	KeyDown	41324	3	Middle	30
594.0966666666667	0	n/a	356459	KeyDown	41324	2	Ring	30
594.1883333333334	0	n/a	356514	KeyDown	41324	4	Index	30
594.5783333333334	0	n/a	356748	KeyDown	41324	4	Index	30
594.7116666666667	0	n/a	356828	KeyDown	41324	1	Little	30
594.9766666666667	0	n/a	356987	KeyDown	41324	3	Middle	30
595.1766666666667	0	n/a	357107	KeyDown	41324	2	Ring	30
595.2916666666667	0	n/a	357176	KeyDown	41324	4	Index	30
595.6183333333333	0	n/a	357372	StopPractice	41324	n/a	n/a	30
595.6200000000000	0	n/a	357373	StartRest	XXXXX	n/a	n/a	30
605.6533333333334	0	n/a	363393	StopRest	XXXXX	n/a	n/a	30
605.6550000000001	0	UPPT001	363394	StartPractice	41324	n/a	n/a	31
606.1333333333333	0	n/a	363681	KeyDown	41324	4	Index	31
606.2833333333334	0	n/a	363771	KeyDown	41324	1	Little	31
606.4366666666667	0	n/a	363863	KeyDown	41324	3	Middle	31
606.5816666666667	0	n/a	363950	KeyDown	41324	2	Ring	31
606.6766666666667	0	n/a	364007	KeyDown	41324	4	Index	31
606.9616666666667	0	n/a	364178	KeyDown	41324	4	Index	31
607.0966666666667	0	n/a	364259	KeyDown	41324	1	Little	31
607.2533333333333	0	n/a	364353	KeyDown	41324	3	Middle	31
607.4166666666667	0	n/a	364451	KeyDown	41324	2	Ring	31
607.4883333333333	0	n/a	364494	KeyDown	41324	4	Index	31
607.7766666666668	0	n/a	364667	KeyDown	41324	4	Index	31
607.9066666666668	0	n/a	364745	KeyDown	41324	1	Little	31
608.1366666666667	0	n/a	364883	KeyDown	41324	3	Middle	31
608.3416666666667	0	n/a	365006	KeyDown	41324	2	Ring	31
608.4416666666667	0	n/a	365066	KeyDown	41324	4	Index	31
608.7483333333333	0	n/a	365250	KeyDown	41324	4	Index	31
608.8966666666668	0	n/a	365339	KeyDown	41324	1	Little	31
609.0883333333334	0	n/a	365454	KeyDown	41324	3	Middle	31
609.2316666666667	0	n/a	365540	KeyDown	41324	2	Ring	31
609.3216666666667	0	n/a	365594	KeyDown	41324	4	Index	31
609.6233333333333	0	n/a	365775	KeyDown	41324	4	Index	31
609.8216666666667	0	n/a	365894	KeyDown	41324	1	Little	31
609.9816666666667	0	n/a	365990	KeyDown	41324	3	Middle	31
610.5483333333334	0	n/a	366330	KeyDown	41324	2	Ring	31
610.6883333333334	0	n/a	366414	KeyDown	41324	4	Index	31
611.0816666666667	0	n/a	366650	KeyDown	41324	4	Index	31
611.2033333333334	0	n/a	366723	KeyDown	41324	1	Little	31
611.4383333333334	0	n/a	366864	KeyDown	41324	3	Middle	31
611.6483333333334	0	n/a	366990	KeyDown	41324	2	Ring	31
611.7583333333333	0	n/a	367056	KeyDown	41324	4	Index	31
612.0533333333334	0	n/a	367233	KeyDown	41324	4	Index	31
612.3400000000000	0	n/a	367405	KeyDown	41324	1	Little	31
612.5150000000000	0	n/a	367510	KeyDown	41324	3	Middle	31
612.7133333333334	0	n/a	367629	KeyDown	41324	2	Ring	31
612.8183333333334	0	n/a	367692	KeyDown	41324	4	Index	31
613.0966666666667	0	n/a	367859	KeyDown	41324	4	Index	31
613.3100000000001	0	n/a	367987	KeyDown	41324	1	Little	31
613.4500000000000	0	n/a	368071	KeyDown	41324	3	Middle	31
613.6183333333333	0	n/a	368172	KeyDown	41324	2	Ring	31
613.7216666666667	0	n/a	368234	KeyDown	41324	4	Index	31
614.2083333333334	0	n/a	368526	KeyDown	41324	1	Little	31
615.0483333333334	0	n/a	369030	KeyDown	41324	4	Index	31
615.5116666666667	0	n/a	369308	KeyDown	41324	1	Little	31
615.6933333333334	0	n/a	369417	StopPractice	41324	n/a	n/a	31
615.6950000000001	0	n/a	369418	StartRest	XXXXX	n/a	n/a	31
625.7283333333334	0	n/a	375438	StopRest	XXXXX	n/a	n/a	31
625.7300000000000	0	UPPT001	375439	StartPractice	41324	n/a	n/a	32
626.1716666666667	0	n/a	375704	KeyDown	41324	4	Index	32
626.3333333333334	0	n/a	375801	KeyDown	41324	1	Little	32
626.3633333333333	0	n/a	375819	KeyDown	41324	3	Middle	32
626.5783333333334	0	n/a	375948	KeyDown	41324	2	Ring	32
626.7833333333334	0	n/a	376071	KeyDown	41324	4	Index	32
627.1900000000001	0	n/a	376315	KeyDown	41324	4	Index	32
627.3666666666667	0	n/a	376421	KeyDown	41324	1	Little	32
627.5100000000000	0	n/a	376507	KeyDown	41324	3	Middle	32
627.6450000000001	0	n/a	376588	KeyDown	41324	2	Ring	32
627.7816666666668	0	n/a	376670	KeyDown	41324	4	Index	32
628.0883333333334	0	n/a	376854	KeyDown	41324	4	Index	32
628.2466666666667	0	n/a	376949	KeyDown	41324	1	Little	32
628.4250000000001	0	n/a	377056	KeyDown	41324	3	Middle	32
628.5616666666667	0	n/a	377138	KeyDown	41324	2	Ring	32
628.6750000000001	0	n/a	377206	KeyDown	41324	4	Index	32
629.0166666666667	0	n/a	377411	KeyDown	41324	4	Index	32
629.5033333333333	0	n/a	377703	KeyDown	41324	1	Little	32
629.7183333333334	0	n/a	377832	KeyDown	41324	3	Middle	32
629.8666666666667	0	n/a	377921	KeyDown	41324	2	Ring	32
629.9550000000000	0	n/a	377974	KeyDown	41324	4	Index	32
630.5983333333334	0	n/a	378360	KeyDown	41324	4	Index	32
630.7266666666667	0	n/a	378437	KeyDown	41324	1	Little	32
631.0016666666667	0	n/a	378602	KeyDown	41324	3	Middle	32
631.1383333333333	0	n/a	378684	KeyDown	41324	2	Ring	32
631.2466666666667	0	n/a	378749	KeyDown	41324	4	Index	32
631.8333333333334	0	n/a	379101	KeyDown	41324	4	Index	32
631.9650000000000	0	n/a	379180	KeyDown	41324	1	Little	32
632.3550000000000	0	n/a	379414	KeyDown	41324	3	Middle	32
632.4683333333334	0	n/a	379482	KeyDown	41324	2	Ring	32
632.6000000000000	0	n/a	379561	KeyDown	41324	4	Index	32
632.9500000000000	0	n/a	379771	KeyDown	41324	4	Index	32
633.1366666666667	0	n/a	379883	KeyDown	41324	1	Little	32
633.3800000000000	0	n/a	380029	KeyDown	41324	4	Index	32
633.8233333333334	0	n/a	380295	KeyDown	41324	3	Middle	32
634.0100000000000	0	n/a	380407	KeyDown	41324	4	Index	32
634.2533333333333	0	n/a	380553	KeyDown	41324	2	Ring	32
634.8566666666667	0	n/a	380915	KeyDown	41324	4	Index	32
635.0833333333334	0	n/a	381051	KeyDown	41324	1	Little	32
635.3350000000000	0	n/a	381202	KeyDown	41324	2	Ring	32
635.7683333333334	0	n/a	381462	StopPractice	41324	n/a	n/a	32
635.7700000000001	0	n/a	381463	StartRest	XXXXX	n/a	n/a	32
645.8033333333334	0	n/a	387483	StopRest	XXXXX	n/a	n/a	32
645.8050000000001	0	UPPT001	387484	StartPractice	41324	n/a	n/a	33
646.4666666666667	0	n/a	387881	KeyDown	41324	4	Index	33
646.6283333333333	0	n/a	387978	KeyDown	41324	1	Little	33
646.9600000000000	0	n/a	388177	KeyDown	41324	3	Middle	33
647.0666666666667	0	n/a	388241	KeyDown	41324	2	Ring	33
647.2083333333334	0	n/a	388326	KeyDown	41324	4	Index	33
647.5466666666667	0	n/a	388529	KeyDown	41324	4	Index	33
647.7033333333334	0	n/a	388623	KeyDown	41324	1	Little	33
647.8483333333334	0	n/a	388710	KeyDown	41324	3	Middle	33
647.9716666666667	0	n/a	388784	KeyDown	41324	2	Ring	33
648.0783333333334	0	n/a	388848	KeyDown	41324	4	Index	33
648.4183333333334	0	n/a	389052	KeyDown	41324	4	Index	33
648.5966666666667	0	n/a	389159	KeyDown	41324	1	Little	33
648.8033333333334	0	n/a	389283	KeyDown	41324	3	Middle	33
648.9416666666667	0	n/a	389366	KeyDown	41324	2	Ring	33
649.0433333333334	0	n/a	389427	KeyDown	41324	4	Index	33
649.3566666666667	0	n/a	389615	KeyDown	41324	4	Index	33
649.5333333333334	0	n/a	389721	KeyDown	41324	1	Little	33
649.6816666666667	0	n/a	389810	KeyDown	41324	3	Middle	33
649.8050000000001	0	n/a	389884	KeyDown	41324	2	Ring	33
649.8733333333333	0	n/a	389925	KeyDown	41324	4	Index	33
650.1916666666667	0	n/a	390116	KeyDown	41324	4	Index	33
650.3666666666667	0	n/a	390221	KeyDown	41324	1	Little	33
650.5916666666667	0	n/a	390356	KeyDown	41324	3	Middle	33
650.7766666666668	0	n/a	390467	KeyDown	41324	2	Ring	33
650.8566666666667	0	n/a	390515	KeyDown	41324	4	Index	33
651.4833333333333	0	n/a	390891	KeyDown	41324	4	Index	33
651.7483333333333	0	n/a	391050	KeyDown	41324	1	Little	33
651.9616666666667	0	n/a	391178	KeyDown	41324	3	Middle	33
652.4366666666667	0	n/a	391463	KeyDown	41324	2	Ring	33
652.5033333333333	0	n/a	391503	KeyDown	41324	4	Index	33
652.8600000000000	0	n/a	391717	KeyDown	41324	4	Index	33
652.9833333333333	0	n/a	391791	KeyDown	41324	1	Little	33
653.1783333333334	0	n/a	391908	KeyDown	41324	3	Middle	33
653.7633333333333	0	n/a	392259	KeyDown	41324	2	Ring	33
653.8816666666667	0	n/a	392330	KeyDown	41324	4	Index	33
654.1916666666667	0	n/a	392516	KeyDown	41324	4	Index	33
654.3066666666667	0	n/a	392585	KeyDown	41324	1	Little	33
654.4833333333333	0	n/a	392691	KeyDown	41324	3	Middle	33
654.6133333333333	0	n/a	392769	KeyDown	41324	2	Ring	33
654.7016666666667	0	n/a	392822	KeyDown	41324	4	Index	33
655.1883333333334	0	n/a	393114	KeyDown	41324	4	Index	33
655.2950000000001	0	n/a	393178	KeyDown	41324	1	Little	33
655.6716666666667	0	n/a	393404	KeyDown	41324	3	Middle	33
655.8000000000001	0	n/a	393481	KeyDown	41324	2	Ring	33
655.8433333333334	0	n/a	393507	StopPractice	41324	n/a	n/a	33
655.8450000000000	0	n/a	393508	StartRest	XXXXX	n/a	n/a	33
665.8766666666667	0	n/a	399527	StopRest	XXXXX	n/a	n/a	33
665.8783333333333	0	UPPT001	399528	StartPractice	41324	n/a	n/a	34
666.3833333333333	0	n/a	399831	KeyDown	41324	4	Index	34
666.5483333333334	0	n/a	399930	KeyDown	41324	3	Middle	34
667.6916666666667	0	n/a	400616	KeyDown	41324	4	Index	34
667.8850000000000	0	n/a	400732	KeyDown	41324	1	Little	34
668.0716666666667	0	n/a	400844	KeyDown	41324	3	Middle	34
668.2416666666667	0	n/a	400946	KeyDown	41324	2	Ring	34
668.2700000000001	0	n/a	400963	KeyDown	41324	4	Index	34
668.6083333333333	0	n/a	401166	KeyDown	41324	4	Index	34
668.7866666666667	0	n/a	401273	KeyDown	41324	1	Little	34
668.9766666666667	0	n/a	401387	KeyDown	41324	3	Middle	34
669.3950000000001	0	n/a	401638	KeyDown	41324	2	Ring	34
669.4766666666667	0	n/a	401687	KeyDown	41324	4	Index	34
669.7916666666667	0	n/a	401876	KeyDown	41324	4	Index	34
669.9416666666667	0	n/a	401966	KeyDown	41324	1	Little	34
670.1133333333333	0	n/a	402069	KeyDown	41324	3	Middle	34
670.2500000000000	0	n/a	402151	KeyDown	41324	2	Ring	34
670.3133333333334	0	n/a	402189	KeyDown	41324	4	Index	34
670.6016666666667	0	n/a	402362	KeyDown	41324	4	Index	34
670.7500000000000	0	n/a	402451	KeyDown	41324	1	Little	34
670.9216666666667	0	n/a	402554	KeyDown	41324	3	Middle	34
671.0416666666667	0	n/a	402626	KeyDown	41324	2	Ring	34
671.1350000000000	0	n/a	402682	KeyDown	41324	4	Index	34
671.4916666666667	0	n/a	402896	KeyDown	41324	4	Index	34
671.6250000000000	0	n/a	402976	KeyDown	41324	1	Little	34
671.8566666666667	0	n/a	403115	KeyDown	41324	3	Middle	34
672.0416666666667	0	n/a	403226	KeyDown	41324	2	Ring	34
672.1366666666667	0	n/a	403283	KeyDown	41324	4	Index	34
672.4600000000000	0	n/a	403477	KeyDown	41324	4	Index	34
672.5883333333334	0	n/a	403554	KeyDown	41324	1	Little	34
672.9850000000000	0	n/a	403792	KeyDown	41324	3	Middle	34
673.0966666666667	0	n/a	403859	KeyDown	41324	2	Ring	34
673.1900000000001	0	n/a	403915	KeyDown	41324	4	Index	34
673.4600000000000	0	n/a	404077	KeyDown	41324	4	Index	34
673.5866666666667	0	n/a	404153	KeyDown	41324	1	Little	34
673.8450000000000	0	n/a	404308	KeyDown	41324	3	Middle	34
673.9916666666667	0	n/a	404396	KeyDown	41324	2	Ring	34
674.0600000000001	0	n/a	404437	KeyDown	41324	4	Index	34
674.3333333333334	0	n/a	404601	KeyDown	41324	4	Index	34
674.5216666666668	0	n/a	404714	KeyDown	41324	1	Little	34
674.7166666666667	0	n/a	404831	KeyDown	41324	3	Middle	34
674.8550000000000	0	n/a	404914	KeyDown	41324	2	Ring	34
674.9366666666667	0	n/a	404963	KeyDown	41324	4	Index	34
675.5016666666667	0	n/a	405302	KeyDown	41324	4	Index	34
675.6433333333334	0	n/a	405387	KeyDown	41324	1	Little	34
675.9166666666667	0	n/a	405551	StopPractice	41324	n/a	n/a	34
675.9183333333334	0	n/a	405552	StartRest	XXXXX	n/a	n/a	34
685.9533333333334	0	n/a	411573	StopRest	XXXXX	n/a	n/a	34
685.9550000000000	0	UPPT001	411574	StartPractice	41324	n/a	n/a	35
686.4100000000001	0	n/a	411847	KeyDown	41324	4	Index	35
686.6083333333333	0	n/a	411966	KeyDown	41324	1	Little	35
686.7383333333333	0	n/a	412044	KeyDown	41324	3	Middle	35
686.8716666666667	0	n/a	412124	KeyDown	41324	2	Ring	35
686.9866666666667	0	n/a	412193	KeyDown	41324	4	Index	35
687.2666666666668	0	n/a	412361	KeyDown	41324	4	Index	35
687.4733333333334	0	n/a	412485	KeyDown	41324	1	Little	35
687.6383333333333	0	n/a	412584	KeyDown	41324	3	Middle	35
687.7966666666667	0	n/a	412679	KeyDown	41324	2	Ring	35
687.8616666666667	0	n/a	412718	KeyDown	41324	4	Index	35
688.4616666666667	0	n/a	413078	KeyDown	41324	4	Index	35
688.6633333333334	0	n/a	413199	KeyDown	41324	1	Little	35
688.8516666666667	0	n/a	413312	KeyDown	41324	3	Middle	35
689.3766666666667	0	n/a	413627	KeyDown	41324	2	Ring	35
689.4700000000000	0	n/a	413683	KeyDown	41324	4	Index	35
689.8166666666667	0	n/a	413891	KeyDown	41324	4	Index	35
689.9733333333334	0	n/a	413985	KeyDown	41324	1	Little	35
690.1683333333334	0	n/a	414102	KeyDown	41324	3	Middle	35
690.2850000000001	0	n/a	414172	KeyDown	41324	2	Ring	35
690.3883333333333	0	n/a	414234	KeyDown	41324	4	Index	35
690.8016666666667	0	n/a	414482	KeyDown	41324	4	Index	35
690.9683333333334	0	n/a	414582	KeyDown	41324	1	Little	35
691.2133333333334	0	n/a	414729	KeyDown	41324	3	Middle	35
691.3766666666667	0	n/a	414827	KeyDown	41324	2	Ring	35
691.4716666666667	0	n/a	414884	KeyDown	41324	4	Index	35
692.2583333333333	0	n/a	415356	KeyDown	41324	4	Index	35
692.4283333333334	0	n/a	415458	KeyDown	41324	1	Little	35
692.6016666666667	0	n/a	415562	KeyDown	41324	3	Middle	35
692.7883333333334	0	n/a	415674	KeyDown	41324	2	Ring	35
692.9433333333334	0	n/a	415767	KeyDown	41324	4	Index	35
693.2366666666667	0	n/a	415943	KeyDown	41324	4	Index	35
693.9233333333334	0	n/a	416355	KeyDown	41324	1	Little	35
694.1933333333334	0	n/a	416517	KeyDown	41324	3	Middle	35
694.3716666666667	0	n/a	416624	KeyDown	41324	2	Ring	35
694.4433333333334	0	n/a	416667	KeyDown	41324	4	Index	35
694.8050000000001	0	n/a	416884	KeyDown	41324	4	Index	35
694.9533333333334	0	n/a	416973	KeyDown	41324	1	Little	35
695.1333333333333	0	n/a	417081	KeyDown	41324	3	Middle	35
695.2383333333333	0	n/a	417144	KeyDown	41324	2	Ring	35
695.3366666666667	0	n/a	417203	KeyDown	41324	4	Index	35
695.7866666666667	0	n/a	417473	KeyDown	41324	4	Index	35
695.9366666666667	0	n/a	417563	KeyDown	41324	1	Little	35
695.9933333333333	0	n/a	417597	StopPractice	41324	n/a	n/a	35
695.9950000000000	0	n/a	417598	StartRest	XXXXX	n/a	n/a	35
706.0283333333334	0	n/a	423618	StopRest	XXXXX	n/a	n/a	35
706.0300000000001	0	UPPT001	423619	StartPractice	41324	n/a	n/a	36
706.4883333333333	0	n/a	423894	KeyDown	41324	4	Index	36
706.6466666666668	0	n/a	423989	KeyDown	41324	1	Little	36
706.7816666666668	0	n/a	424070	KeyDown	41324	3	Middle	36
706.8950000000001	0	n/a	424138	KeyDown	41324	2	Ring	36
706.9983333333333	0	n/a	424200	KeyDown	41324	4	Index	36
707.2883333333334	0	n/a	424374	KeyDown	41324	4	Index	36
707.4283333333334	0	n/a	424458	KeyDown	41324	1	Little	36
707.5716666666667	0	n/a	424544	KeyDown	41324	3	Middle	36
707.7816666666668	0	n/a	424670	KeyDown	41324	2	Ring	36
707.8083333333334	0	n/a	424686	KeyDown	41324	4	Index	36
708.2883333333334	0	n/a	424974	KeyDown	41324	4	Index	36
708.5250000000001	0	n/a	425116	KeyDown	41324	1	Little	36
708.7100000000000	0	n/a	425227	KeyDown	41324	3	Middle	36
708.8783333333333	0	n/a	425328	KeyDown	41324	2	Ring	36
708.9633333333334	0	n/a	425379	KeyDown	41324	4	Index	36
709.3183333333334	0	n/a	425592	KeyDown	41324	4	Index	36
709.6400000000001	0	n/a	425785	KeyDown	41324	1	Little	36
709.8683333333333	0	n/a	425922	KeyDown	41324	3	Middle	36
710.0533333333334	0	n/a	426033	KeyDown	41324	4	Index	36
710.9433333333334	0	n/a	426567	KeyDown	41324	2	Ring	36
711.0766666666667	0	n/a	426647	KeyDown	41324	4	Index	36
711.4516666666667	0	n/a	426872	KeyDown	41324	4	Index	36
711.6650000000001	0	n/a	427000	KeyDown	41324	1	Little	36
711.8350000000000	0	n/a	427102	KeyDown	41324	3	Middle	36
711.9583333333334	0	n/a	427176	KeyDown	41324	2	Ring	36
712.0766666666667	0	n/a	427247	KeyDown	41324	4	Index	36
712.7233333333334	0	n/a	427635	KeyDown	41324	4	Index	36
712.8766666666667	0	n/a	427727	KeyDown	41324	1	Little	36
713.1066666666667	0	n/a	427865	KeyDown	41324	3	Middle	36
713.2383333333333	0	n/a	427944	KeyDown	41324	2	Ring	36
713.3383333333334	0	n/a	428004	KeyDown	41324	4	Index	36
713.7316666666667	0	n/a	428240	KeyDown	41324	4	Index	36
713.9183333333334	0	n/a	428352	KeyDown	41324	1	Little	36
714.1216666666667	0	n/a	428474	KeyDown	41324	3	Middle	36
714.2766666666668	0	n/a	428567	KeyDown	41324	2	Ring	36
714.3616666666667	0	n/a	428618	KeyDown	41324	4	Index	36
714.7583333333333	0	n/a	428856	KeyDown	41324	4	Index	36
714.9366666666667	0	n/a	428963	KeyDown	41324	1	Little	36
715.1250000000000	0	n/a	429076	KeyDown	41324	3	Middle	36
715.2116666666667	0	n/a	429128	KeyDown	41324	2	Ring	36
715.6033333333334	0	n/a	429363	KeyDown	41324	4	Index	36
716.0683333333334	0	n/a	429642	StopPractice	41324	n/a	n/a	36
716.0700000000001	0	n/a	429643	StartRest	XXXXX	n/a	n/a	36
726.1050000000000	0	n/a	435664	StopRest	XXXXX	n/a	n/a	36
