onset	duration	channel	onset_sample_idx	event_type	target_sequence	keypress_id	finger_label	trial_number
8.9283333333333	0	UPPT001	5358	StartPractice	41324	n/a	n/a	1
12.0883333333333	0	n/a	7254	KeyDown	41324	4	Index	1
12.4000000000000	0	n/a	7441	KeyDown	41324	1	Little	1
12.8300000000000	0	n/a	7699	KeyDown	41324	3	Middle	1
13.0900000000000	0	n/a	7855	KeyDown	41324	2	Ring	1
13.4916666666667	0	n/a	8096	KeyDown	41324	4	Index	1
13.8150000000000	0	n/a	8290	KeyDown	41324	1	Little	1
14.2733333333333	0	n/a	8565	KeyDown	41324	3	Middle	1
14.4766666666667	0	n/a	8687	KeyDown	41324	2	Ring	1
14.7983333333333	0	n/a	8880	KeyDown	41324	4	Index	1
15.0716666666667	0	n/a	9044	KeyDown	41324	1	Little	1
15.7783333333333	0	n/a	9468	KeyDown	41324	3	Middle	1
16.0000000000000	0	n/a	9601	KeyDown	41324	2	Ring	1
16.3150000000000	0	n/a	9790	KeyDown	41324	4	Index	1
16.6566666666667	0	n/a	9995	KeyDown	41324	1	Little	1
17.2833333333333	0	n/a	10371	KeyDown	41324	2	Ring	1
18.5716666666667	0	n/a	11144	KeyDown	41324	4	Index	1
18.9666666666667	0	n/a	11381	StopPractice	41324	n/a	n/a	1
18.9683333333333	0	n/a	11382	StartRest	XXXXX	n/a	n/a	1
29.0216666666667	0	n/a	17414	StopRest	XXXXX	n/a	n/a	1
29.0233333333333	0	UPPT001	17415	StartPractice	41324	n/a	n/a	2
30.4833333333333	0	n/a	18291	KeyDown	41324	4	Index	2
30.7000000000000	0	n/a	18421	KeyDown	41324	1	Little	2
31.4783333333333	0	n/a	18888	KeyDown	41324	3	Middle	2
31.7950000000000	0	n/a	19078	KeyDown	41324	2	Ring	2
32.2783333333333	0	n/a	19368	KeyDown	41324	4	Index	2
32.6250000000000	0	n/a	19576	KeyDown	41324	1	Little	2
33.0716666666667	0	n/a	19844	KeyDown	41324	3	Middle	2
33.5600000000000	0	n/a	20137	KeyDown	41324	2	Ring	2
33.9950000000000	0	n/a	20398	KeyDown	41324	2	Ring	2
34.3416666666667	0	n/a	20606	KeyDown	41324	4	Index	2
35.0500000000000	0	n/a	21031	KeyDown	41324	4	Index	2
35.4166666666667	0	n/a	21251	KeyDown	41324	1	Little	2
35.8833333333333	0	n/a	21531	KeyDown	41324	3	Middle	2
36.1916666666667	0	n/a	21716	KeyDown	41324	2	Ring	2
36.5950000000000	0	n/a	21958	KeyDown	41324	4	Index	2
37.2733333333333	0	n/a	22365	KeyDown	41324	4	Index	2
37.6166666666667	0	n/a	22571	KeyDown	41324	1	Little	2
38.1866666666667	0	n/a	22913	KeyDown	41324	2	Ring	2
38.9900000000000	0	n/a	23395	KeyDown	41324	3	Middle	2
39.0616666666667	0	n/a	23438	StopPractice	41324	n/a	n/a	2
39.0633333333333	0	n/a	23439	StartRest	XXXXX	n/a	n/a	2
49.0966666666667	0	n/a	29459	StopRest	XXXXX	n/a	n/a	2
49.0983333333333	0	UPPT001	29460	StartPractice	41324	n/a	n/a	3
50.0933333333333	0	n/a	30057	KeyDown	41324	4	Index	3
50.3033333333333	0	n/a	30183	KeyDown	41324	1	Little	3
50.7716666666667	0	n/a	30464	KeyDown	41324	3	Middle	3
51.0583333333333	0	n/a	30636	KeyDown	41324	2	Ring	3
51.4816666666667	0	n/a	30890	KeyDown	41324	4	Index	3
52.4000000000000	0	n/a	31441	KeyDown	41324	4	Index	3
52.6983333333333	0	n/a	31620	KeyDown	41324	1	Little	3
53.0566666666667	0	n/a	31835	KeyDown	41324	3	Middle	3
53.3250000000000	0	n/a	31996	KeyDown	41324	2	Ring	3
53.7366666666667	0	n/a	32243	KeyDown	41324	4	Index	3
54.4466666666667	0	n/a	32669	KeyDown	41324	4	Index	3
54.8100000000000	0	n/a	32887	KeyDown	41324	1	Little	3
55.5916666666667	0	n/a	33356	KeyDown	41324	3	Middle	3
55.9216666666667	0	n/a	33554	KeyDown	41324	2	Ring	3
56.3100000000000	0	n/a	33787	KeyDown	41324	4	Index	3
56.9650000000000	0	n/a	34180	KeyDown	41324	4	Index	3
57.4566666666667	0	n/a	34475	KeyDown	41324	2	Ring	3
57.7800000000000	0	n/a	34669	KeyDown	41324	3	Middle	3
58.1566666666667	0	n/a	34895	KeyDown	41324	2	Ring	3
58.5200000000000	0	n/a	35113	KeyDown	41324	4	Index	3
59.1366666666667	0	n/a	35483	StopPractice	41324	n/a	n/a	3
59.1383333333333	0	n/a	35484	StartRest	XXXXX	n/a	n/a	3
69.1716666666667	0	n/a	41504	StopRest	XXXXX	n/a	n/a	3
69.1733333333333	0	UPPT001	41505	StartPractice	41324	n/a	n/a	4
70.2000000000000	0	n/a	42121	KeyDown	41324	4	Index	4
70.4783333333333	0	n/a	42288	KeyDown	41324	1	Little	4
70.8083333333333	0	n/a	42486	KeyDown	41324	3	Middle	4
71.1950000000000	0	n/a	42718	KeyDown	41324	2	Ring	4
71.4866666666667	0	n/a	42893	KeyDown	41324	4	Index	4
72.0566666666667	0	n/a	43235	KeyDown	41324	4	Index	4
72.4616666666667	0	n/a	43478	KeyDown	41324	1	Little	4
72.9550000000000	0	n/a	43774	KeyDown	41324	3	Middle	4
73.2600000000000	0	n/a	43957	KeyDown	41324	2	Ring	4
74.1183333333333	0	n/a	44472	KeyDown	41324	4	Index	4
74.9116666666667	0	n/a	44948	KeyDown	41324	4	Index	4
75.2766666666667	0	n/a	45167	KeyDown	41324	1	Little	4
75.6783333333333	0	n/a	45408	KeyDown	41324	3	Middle	4
75.9866666666667	0	n/a	45593	KeyDown	41324	2	Ring	4
76.5400000000000	0	n/a	45925	KeyDown	41324	4	Index	4
77.1750000000000	0	n/a	46306	KeyDown	41324	4	Index	4
77.4816666666667	0	n/a	46490	KeyDown	41324	1	Little	4
77.9083333333333	0	n/a	46746	KeyDown	41324	3	Middle	4
78.2150000000000	0	n/a	46930	KeyDown	41324	2	Ring	4
78.5700000000000	0	n/a	47143	KeyDown	41324	4	Index	4
79.0983333333333	0	n/a	47460	KeyDown	41324	4	Index	4
79.2116666666667	0	n/a	47528	StopPractice	41324	n/a	n/a	4
79.2133333333333	0	n/a	47529	StartRest	XXXXX	n/a	n/a	4
89.2450000000000	0	n/a	53548	StopRest	XXXXX	n/a	n/a	4
89.2466666666667	0	UPPT001	53549	StartPractice	41324	n/a	n/a	5
90.0533333333333	0	n/a	54033	KeyDown	41324	4	Index	5
90.3283333333333	0	n/a	54198	KeyDown	41324	1	Little	5
90.6716666666667	0	n/a	54404	KeyDown	41324	3	Middle	5
90.9850000000000	0	n/a	54592	KeyDown	41324	2	Ring	5
91.2566666666667	0	n/a	54755	KeyDown	41324	4	Index	5
91.6600000000000	0	n/a	54997	KeyDown	41324	4	Index	5
92.0033333333333	0	n/a	55203	KeyDown	41324	1	Little	5
92.4600000000000	0	n/a	55477	KeyDown	41324	3	Middle	5
92.7633333333333	0	n/a	55659	KeyDown	41324	2	Ring	5
93.1083333333333	0	n/a	55866	KeyDown	41324	4	Index	5
93.5166666666667	0	n/a	56111	KeyDown	41324	4	Index	5
93.8433333333333	0	n/a	56307	KeyDown	41324	1	Little	5
94.4350000000000	0	n/a	56662	KeyDown	41324	3	Middle	5
94.7016666666667	0	n/a	56822	KeyDown	41324	2	Ring	5
95.0866666666667	0	n/a	57053	KeyDown	41324	4	Index	5
95.6533333333333	0	n/a	57393	KeyDown	41324	4	Index	5
96.0166666666667	0	n/a	57611	KeyDown	41324	1	Little	5
96.4783333333333	0	n/a	57888	KeyDown	41324	3	Middle	5
96.7250000000000	0	n/a	58036	KeyDown	41324	2	Ring	5
97.0433333333333	0	n/a	58227	KeyDown	41324	4	Index	5
97.7333333333333	0	n/a	58641	KeyDown	41324	4	Index	5
98.1000000000000	0	n/a	58861	KeyDown	41324	1	Little	5
99.2850000000000	0	n/a	59572	StopPractice	41324	n/a	n/a	5
99.2866666666667	0	n/a	59573	StartRest	XXXXX	n/a	n/a	5
109.3216666666667	0	n/a	65594	StopRest	XXXXX	n/a	n/a	5
109.3233333333333	0	UPPT001	65595	StartPractice	41324	n/a	n/a	6
110.0200000000000	0	n/a	66013	KeyDown	41324	4	Index	6
110.2950000000000	0	n/a	66178	KeyDown	41324	1	Little	6
110.5900000000000	0	n/a	66355	KeyDown	41324	3	Middle	6
110.8950000000000	0	n/a	66538	KeyDown	41324	2	Ring	6
111.2066666666667	0	n/a	66725	KeyDown	41324	4	Index	6
112.0450000000000	0	n/a	67228	KeyDown	41324	4	Index	6
112.3450000000000	0	n/a	67408	KeyDown	41324	1	Little	6
112.6783333333333	0	n/a	67608	KeyDown	41324	3	Middle	6
112.9900000000000	0	n/a	67795	KeyDown	41324	2	Ring	6
113.3150000000000	0	n/a	67990	KeyDown	41324	4	Index	6
113.7100000000000	0	n/a	68227	KeyDown	41324	4	Index	6
114.1716666666667	0	n/a	68504	KeyDown	41324	1	Little	6
114.5350000000000	0	n/a	68722	KeyDown	41324	3	Middle	6
114.8400000000000	0	n/a	68905	KeyDown	41324	2	Ring	6
115.1483333333333	0	n/a	69090	KeyDown	41324	4	Index	6
115.4916666666667	0	n/a	69296	KeyDown	41324	4	Index	6
115.8766666666667	0	n/a	69527	KeyDown	41324	1	Little	6
116.4850000000000	0	n/a	69892	KeyDown	41324	3	Middle	6
116.7850000000000	0	n/a	70072	KeyDown	41324	2	Ring	6
117.1166666666667	0	n/a	70271	KeyDown	41324	4	Index	6
117.7900000000000	0	n/a	70675	KeyDown	41324	4	Index	6
118.2000000000000	0	n/a	70921	KeyDown	41324	1	Little	6
119.1083333333333	0	n/a	71466	KeyDown	41324	3	Middle	6
119.3316666666667	0	n/a	71600	KeyDown	41324	2	Ring	6
119.3616666666667	0	n/a	71618	StopPractice	41324	n/a	n/a	6
119.3633333333333	0	n/a	71619	StartRest	XXXXX	n/a	n/a	6
129.3950000000000	0	n/a	77638	StopRest	XXXXX	n/a	n/a	6
129.3966666666667	0	UPPT001	77639	StartPractice	41324	n/a	n/a	7
130.0783333333333	0	n/a	78048	KeyDown	41324	4	Index	7
130.4016666666667	0	n/a	78242	KeyDown	41324	1	Little	7
130.7550000000000	0	n/a	78454	KeyDown	41324	3	Middle	7
130.9866666666667	0	n/a	78593	KeyDown	41324	2	Ring	7
131.2750000000000	0	n/a	78766	KeyDown	41324	4	Index	7
131.5916666666667	0	n/a	78956	KeyDown	41324	4	Index	7
131.8533333333334	0	n/a	79113	KeyDown	41324	1	Little	7
132.1433333333333	0	n/a	79287	KeyDown	41324	2	Ring	7
132.2083333333333	0	n/a	79326	KeyDown	41324	3	Middle	7
132.4900000000000	0	n/a	79495	KeyDown	41324	2	Ring	7
132.7783333333333	0	n/a	79668	KeyDown	41324	4	Index	7
133.0683333333333	0	n/a	79842	KeyDown	41324	4	Index	7
133.3733333333333	0	n/a	80025	KeyDown	41324	1	Little	7
133.7600000000000	0	n/a	80257	KeyDown	41324	3	Middle	7
134.0350000000000	0	n/a	80422	KeyDown	41324	2	Ring	7
134.3116666666667	0	n/a	80588	KeyDown	41324	4	Index	7
134.7116666666667	0	n/a	80828	KeyDown	41324	1	Little	7
135.6350000000000	0	n/a	81382	KeyDown	41324	4	Index	7
136.1033333333334	0	n/a	81663	KeyDown	41324	1	Little	7
136.4616666666667	0	n/a	81878	KeyDown	41324	2	Ring	7
136.8533333333334	0	n/a	82113	KeyDown	41324	3	Middle	7
137.0616666666667	0	n/a	82238	KeyDown	41324	2	Ring	7
137.3383333333333	0	n/a	82404	KeyDown	41324	4	Index	7
137.9700000000000	0	n/a	82783	KeyDown	41324	4	Index	7
138.2950000000000	0	n/a	82978	KeyDown	41324	1	Little	7
138.6566666666667	0	n/a	83195	KeyDown	41324	3	Middle	7
138.9983333333333	0	n/a	83400	KeyDown	41324	2	Ring	7
139.2766666666667	0	n/a	83567	KeyDown	41324	4	Index	7
139.4350000000000	0	n/a	83662	StopPractice	41324	n/a	n/a	7
139.4366666666667	0	n/a	83663	StartRest	XXXXX	n/a	n/a	7
149.4700000000000	0	n/a	89683	StopRest	XXXXX	n/a	n/a	7
149.4716666666667	0	UPPT001	89684	StartPractice	41324	n/a	n/a	8
150.3983333333333	0	n/a	90240	KeyDown	41324	4	Index	8
150.6283333333333	0	n/a	90378	KeyDown	41324	1	Little	8
150.9133333333334	0	n/a	90549	KeyDown	41324	3	Middle	8
151.1783333333333	0	n/a	90708	KeyDown	41324	2	Ring	8
151.5066666666667	0	n/a	90905	KeyDown	41324	4	Index	8
151.9350000000000	0	n/a	91162	KeyDown	41324	4	Index	8
152.2250000000000	0	n/a	91336	KeyDown	41324	1	Little	8
152.5750000000000	0	n/a	91546	KeyDown	41324	3	Middle	8
152.8533333333334	0	n/a	91713	KeyDown	41324	2	Ring	8
153.1433333333333	0	n/a	91887	KeyDown	41324	4	Index	8
153.5250000000000	0	n/a	92116	KeyDown	41324	4	Index	8
153.8450000000000	0	n/a	92308	KeyDown	41324	1	Little	8
154.1950000000000	0	n/a	92518	KeyDown	41324	3	Middle	8
154.4383333333333	0	n/a	92664	KeyDown	41324	2	Ring	8
154.8050000000000	0	n/a	92884	KeyDown	41324	4	Index	8
155.3950000000000	0	n/a	93238	KeyDown	41324	4	Index	8
155.6833333333333	0	n/a	93411	KeyDown	41324	1	Little	8
156.6783333333333	0	n/a	94008	KeyDown	41324	3	Middle	8
156.9100000000000	0	n/a	94147	KeyDown	41324	2	Ring	8
157.2150000000000	0	n/a	94330	KeyDown	41324	4	Index	8
157.8133333333333	0	n/a	94689	KeyDown	41324	4	Index	8
158.2283333333334	0	n/a	94938	KeyDown	41324	1	Little	8
158.7600000000000	0	n/a	95257	KeyDown	41324	3	Middle	8
158.9800000000000	0	n/a	95389	KeyDown	41324	2	Ring	8
159.2550000000000	0	n/a	95554	KeyDown	41324	4	Index	8
159.5100000000000	0	n/a	95707	StopPractice	41324	n/a	n/a	8
159.5116666666667	0	n/a	95708	StartRest	XXXXX	n/a	n/a	8
169.5450000000000	0	n/a	101728	StopRest	XXXXX	n/a	n/a	8
169.5466666666667	0	UPPT001	101729	StartPractice	41324	n/a	n/a	9
170.1283333333333	0	n/a	102078	KeyDown	41324	4	Index	9
170.3416666666667	0	n/a	102206	KeyDown	41324	1	Little	9
170.6116666666667	0	n/a	102368	KeyDown	41324	3	Middle	9
170.8383333333333	0	n/a	102504	KeyDown	41324	2	Ring	9
171.1716666666667	0	n/a	102704	KeyDown	41324	4	Index	9
171.6333333333334	0	n/a	102981	KeyDown	41324	4	Index	9
171.9116666666667	0	n/a	103148	KeyDown	41324	1	Little	9
172.1883333333333	0	n/a	103314	KeyDown	41324	3	Middle	9
172.4266666666667	0	n/a	103457	KeyDown	41324	2	Ring	9
172.6950000000000	0	n/a	103618	KeyDown	41324	4	Index	9
173.2800000000000	0	n/a	103969	KeyDown	41324	4	Index	9
173.6350000000000	0	n/a	104182	KeyDown	41324	1	Little	9
173.9916666666667	0	n/a	104396	KeyDown	41324	3	Middle	9
174.2683333333333	0	n/a	104562	KeyDown	41324	2	Ring	9
174.5666666666667	0	n/a	104741	KeyDown	41324	4	Index	9
175.1083333333333	0	n/a	105066	KeyDown	41324	4	Index	9
175.4333333333333	0	n/a	105261	KeyDown	41324	1	Little	9
175.8383333333333	0	n/a	105504	KeyDown	41324	3	Middle	9
176.0600000000000	0	n/a	105637	KeyDown	41324	2	Ring	9
176.3466666666667	0	n/a	105809	KeyDown	41324	4	Index	9
176.9450000000000	0	n/a	106168	KeyDown	41324	4	Index	9
177.2650000000000	0	n/a	106360	KeyDown	41324	1	Little	9
177.6300000000000	0	n/a	106579	KeyDown	41324	3	Middle	9
177.8700000000000	0	n/a	106723	KeyDown	41324	2	Ring	9
178.1083333333333	0	n/a	106866	KeyDown	41324	4	Index	9
178.5950000000000	0	n/a	107158	KeyDown	41324	4	Index	9
178.8950000000000	0	n/a	107338	KeyDown	41324	1	Little	9
179.2266666666667	0	n/a	107537	KeyDown	41324	3	Middle	9
179.4433333333334	0	n/a	107667	KeyDown	41324	2	Ring	9
179.5850000000000	0	n/a	107752	StopPractice	41324	n/a	n/a	9
179.5866666666667	0	n/a	107753	StartRest	XXXXX	n/a	n/a	9
189.6200000000000	0	n/a	113773	StopRest	XXXXX	n/a	n/a	9
189.6216666666667	0	UPPT001	113774	StartPractice	41324	n/a	n/a	10
190.2183333333333	0	n/a	114132	KeyDown	41324	4	Index	10
190.4600000000000	0	n/a	114277	KeyDown	41324	1	Little	10
190.7216666666667	0	n/a	114434	KeyDown	41324	3	Middle	10
190.9766666666667	0	n/a	114587	KeyDown	41324	2	Ring	10
191.1933333333334	0	n/a	114717	KeyDown	41324	4	Index	10
191.5700000000000	0	n/a	114943	KeyDown	41324	4	Index	10
191.8033333333333	0	n/a	115083	KeyDown	41324	1	Little	10
192.0750000000000	0	n/a	115246	KeyDown	41324	3	Middle	10
192.3583333333333	0	n/a	115416	KeyDown	41324	2	Ring	10
192.5633333333333	0	n/a	115539	KeyDown	41324	4	Index	10
192.9300000000000	0	n/a	115759	KeyDown	41324	4	Index	10
193.1600000000000	0	n/a	115897	KeyDown	41324	1	Little	10
193.4533333333333	0	n/a	116073	KeyDown	41324	3	Middle	10
193.6783333333333	0	n/a	116208	KeyDown	41324	2	Ring	10
193.9150000000000	0	n/a	116350	KeyDown	41324	4	Index	10
194.3566666666667	0	n/a	116615	KeyDown	41324	4	Index	10
194.5933333333333	0	n/a	116757	KeyDown	41324	1	Little	10
194.8533333333334	0	n/a	116913	KeyDown	41324	2	Ring	10
195.0383333333334	0	n/a	117024	KeyDown	41324	3	Middle	10
195.5150000000000	0	n/a	117310	KeyDown	41324	4	Index	10
195.9966666666667	0	n/a	117599	KeyDown	41324	4	Index	10
196.2500000000000	0	n/a	117751	KeyDown	41324	1	Little	10
196.7800000000000	0	n/a	118069	KeyDown	41324	3	Middle	10
196.9966666666667	0	n/a	118199	KeyDown	41324	2	Ring	10
197.2050000000000	0	n/a	118324	KeyDown	41324	4	Index	10
197.6500000000000	0	n/a	118591	KeyDown	41324	4	Index	10
197.9100000000000	0	n/a	118747	KeyDown	41324	1	Little	10
198.2233333333334	0	n/a	118935	KeyDown	41324	3	Middle	10
198.4433333333334	0	n/a	119067	KeyDown	41324	2	Ring	10
198.6700000000000	0	n/a	119203	KeyDown	41324	4	Index	10
199.0850000000000	0	n/a	119452	KeyDown	41324	4	Index	10
199.3250000000000	0	n/a	119596	KeyDown	41324	1	Little	10
199.6600000000000	0	n/a	119797	StopPractice	41324	n/a	n/a	10
199.6616666666667	0	n/a	119798	StartRest	XXXXX	n/a	n/a	10
209.6950000000000	0	n/a	125818	StopRest	XXXXX	n/a	n/a	10
209.6966666666667	0	UPPT001	125819	StartPractice	41324	n/a	n/a	11
210.4000000000000	0	n/a	126241	KeyDown	41324	4	Index	11
210.6100000000000	0	n/a	126367	KeyDown	41324	1	Little	11
210.8383333333333	0	n/a	126504	KeyDown	41324	3	Middle	11
211.0850000000000	0	n/a	126652	KeyDown	41324	2	Ring	11
211.3016666666667	0	n/a	126782	KeyDown	41324	4	Index	11
211.6283333333334	0	n/a	126978	KeyDown	41324	4	Index	11
211.8833333333334	0	n/a	127131	KeyDown	41324	1	Little	11
212.1533333333333	0	n/a	127293	KeyDown	41324	3	Middle	11
212.3800000000000	0	n/a	127429	KeyDown	41324	2	Ring	11
212.4333333333333	0	n/a	127461	KeyDown	41324	1	Little	11
212.6633333333334	0	n/a	127599	KeyDown	41324	4	Index	11
213.0800000000000	0	n/a	127849	KeyDown	41324	4	Index	11
213.3700000000000	0	n/a	128023	KeyDown	41324	1	Little	11
213.7633333333333	0	n/a	128259	KeyDown	41324	3	Middle	11
213.9983333333333	0	n/a	128400	KeyDown	41324	2	Ring	11
214.2366666666667	0	n/a	128543	KeyDown	41324	4	Index	11
214.8166666666667	0	n/a	128891	KeyDown	41324	1	Little	11
215.6433333333333	0	n/a	129387	KeyDown	41324	4	Index	11
215.9350000000000	0	n/a	129562	KeyDown	41324	1	Little	11
216.2583333333334	0	n/a	129756	KeyDown	41324	3	Middle	11
216.5366666666667	0	n/a	129923	KeyDown	41324	2	Ring	11
216.8016666666667	0	n/a	130082	KeyDown	41324	4	Index	11
217.1700000000000	0	n/a	130303	KeyDown	41324	4	Index	11
217.4500000000000	0	n/a	130471	KeyDown	41324	1	Little	11
217.8516666666667	0	n/a	130712	KeyDown	41324	3	Middle	11
218.0300000000000	0	n/a	130819	KeyDown	41324	2	Ring	11
218.2733333333333	0	n/a	130965	KeyDown	41324	4	Index	11
218.6916666666667	0	n/a	131216	KeyDown	41324	4	Index	11
218.9250000000000	0	n/a	131356	KeyDown	41324	1	Little	11
219.2216666666667	0	n/a	131534	KeyDown	41324	2	Ring	11
219.3650000000000	0	n/a	131620	KeyDown	41324	3	Middle	11
219.5783333333333	0	n/a	131748	KeyDown	41324	2	Ring	11
219.7350000000000	0	n/a	131842	StopPractice	41324	n/a	n/a	11
219.7366666666667	0	n/a	131843	StartRest	XXXXX	n/a	n/a	11
229.7700000000000	0	n/a	137863	StopRest	XXXXX	n/a	n/a	11
229.7716666666667	0	UPPT001	137864	StartPractice	41324	n/a	n/a	12
230.2683333333333	0	n/a	138162	KeyDown	41324	4	Index	12
230.4583333333333	0	n/a	138276	KeyDown	41324	1	Little	12
230.7350000000000	0	n/a	138442	KeyDown	41324	3	Middle	12
230.9483333333334	0	n/a	138570	KeyDown	41324	2	Ring	12
231.1416666666667	0	n/a	138686	KeyDown	41324	4	Index	12
231.5633333333334	0	n/a	138939	KeyDown	41324	4	Index	12
231.7950000000000	0	n/a	139078	KeyDown	41324	1	Little	12
232.0516666666667	0	n/a	139232	KeyDown	41324	2	Ring	12
232.3000000000000	0	n/a	139381	KeyDown	41324	3	Middle	12
232.7133333333333	0	n/a	139629	KeyDown	41324	4	Index	12
233.1283333333334	0	n/a	139878	KeyDown	41324	4	Index	12
233.4883333333333	0	n/a	140094	KeyDown	41324	1	Little	12
233.8600000000000	0	n/a	140317	KeyDown	41324	3	Middle	12
234.0833333333333	0	n/a	140451	KeyDown	41324	2	Ring	12
234.3516666666667	0	n/a	140612	KeyDown	41324	4	Index	12
234.9050000000000	0	n/a	140944	KeyDown	41324	4	Index	12
235.1233333333333	0	n/a	141075	KeyDown	41324	1	Little	12
235.5733333333334	0	n/a	141345	KeyDown	41324	3	Middle	12
235.7633333333333	0	n/a	141459	KeyDown	41324	2	Ring	12
236.0200000000000	0	n/a	141613	KeyDown	41324	4	Index	12
236.5583333333333	0	n/a	141936	KeyDown	41324	4	Index	12
236.8250000000000	0	n/a	142096	KeyDown	41324	1	Little	12
237.1450000000000	0	n/a	142288	KeyDown	41324	3	Middle	12
237.3666666666667	0	n/a	142421	KeyDown	41324	2	Ring	12
237.5883333333333	0	n/a	142554	KeyDown	41324	4	Index	12
238.1000000000000	0	n/a	142861	KeyDown	41324	4	Index	12
238.3883333333333	0	n/a	143034	KeyDown	41324	1	Little	12
238.6800000000000	0	n/a	143209	KeyDown	41324	3	Middle	12
238.8850000000000	0	n/a	143332	KeyDown	41324	2	Ring	12
239.0783333333333	0	n/a	143448	KeyDown	41324	4	Index	12
239.5783333333333	0	n/a	143748	KeyDown	41324	4	Index	12
239.8100000000000	0	n/a	143887	StopPractice	41324	n/a	n/a	12
239.8116666666667	0	n/a	143888	StartRest	XXXXX	n/a	n/a	12
249.8450000000000	0	n/a	149908	StopRest	XXXXX	n/a	n/a	12
249.8466666666667	0	UPPT001	149909	StartPractice	41324	n/a	n/a	13
250.5733333333334	0	n/a	150345	KeyDown	41324	4	Index	13
250.8516666666667	0	n/a	150512	KeyDown	41324	1	Little	13
251.1683333333334	0	n/a	150702	KeyDown	41324	2	Ring	13
251.3983333333333	0	n/a	150840	KeyDown	41324	3	Middle	13
252.0933333333334	0	n/a	151257	KeyDown	41324	4	Index	13
252.4116666666667	0	n/a	151448	KeyDown	41324	1	Little	13
252.7400000000000	0	n/a	151645	KeyDown	41324	3	Middle	13
252.9450000000000	0	n/a	151768	KeyDown	41324	2	Ring	13
253.1650000000000	0	n/a	151900	KeyDown	41324	4	Index	13
253.4850000000000	0	n/a	152092	KeyDown	41324	4	Index	13
253.7400000000000	0	n/a	152245	KeyDown	41324	1	Little	13
254.0816666666667	0	n/a	152450	KeyDown	41324	3	Middle	13
254.2900000000000	0	n/a	152575	KeyDown	41324	2	Ring	13
254.5066666666667	0	n/a	152705	KeyDown	41324	4	Index	13
254.8633333333333	0	n/a	152919	KeyDown	41324	4	Index	13
255.1333333333334	0	n/a	153081	KeyDown	41324	1	Little	13
255.5333333333334	0	n/a	153321	KeyDown	41324	3	Middle	13
255.7250000000000	0	n/a	153436	KeyDown	41324	2	Ring	13
255.9716666666667	0	n/a	153584	KeyDown	41324	4	Index	13
256.2566666666667	0	n/a	153755	KeyDown	41324	4	Index	13
256.5333333333334	0	n/a	153921	KeyDown	41324	1	Little	13
256.9833333333333	0	n/a	154191	KeyDown	41324	3	Middle	13
257.1716666666667	0	n/a	154304	KeyDown	41324	2	Ring	13
257.4433333333333	0	n/a	154467	KeyDown	41324	4	Index	13
257.7800000000000	0	n/a	154669	KeyDown	41324	4	Index	13
258.0566666666667	0	n/a	154835	KeyDown	41324	1	Little	13
258.6283333333333	0	n/a	155178	KeyDown	41324	3	Middle	13
258.8300000000000	0	n/a	155299	KeyDown	41324	2	Ring	13
259.0816666666667	0	n/a	155450	KeyDown	41324	4	Index	13
259.6100000000000	0	n/a	155767	KeyDown	41324	4	Index	13
259.8850000000000	0	n/a	155932	StopPractice	41324	n/a	n/a	13
259.8866666666667	0	n/a	155933	StartRest	XXXXX	n/a	n/a	13
269.9200000000000	0	n/a	161953	StopRest	XXXXX	n/a	n/a	13
269.9216666666667	0	UPPT001	161954	StartPractice	41324	n/a	n/a	14
270.3700000000000	0	n/a	162223	KeyDown	41324	4	Index	14
270.5800000000000	0	n/a	162349	KeyDown	41324	1	Little	14
270.8950000000000	0	n/a	162538	KeyDown	41324	3	Middle	14
271.1000000000000	0	n/a	162661	KeyDown	41324	2	Ring	14
271.3383333333334	0	n/a	162804	KeyDown	41324	4	Index	14
271.6850000000000	0	n/a	163012	KeyDown	41324	4	Index	14
271.9733333333334	0	n/a	163185	KeyDown	41324	1	Little	14
272.2850000000000	0	n/a	163372	KeyDown	41324	3	Middle	14
272.5050000000000	0	n/a	163504	KeyDown	41324	2	Ring	14
272.7233333333334	0	n/a	163635	KeyDown	41324	4	Index	14
273.1566666666667	0	n/a	163895	KeyDown	41324	4	Index	14
273.4100000000000	0	n/a	164047	KeyDown	41324	1	Little	14
273.6966666666667	0	n/a	164219	KeyDown	41324	3	Middle	14
273.9083333333334	0	n/a	164346	KeyDown	41324	2	Ring	14
274.1250000000000	0	n/a	164476	KeyDown	41324	4	Index	14
274.4616666666667	0	n/a	164678	KeyDown	41324	4	Index	14
274.7283333333334	0	n/a	164838	KeyDown	41324	1	Little	14
275.3750000000000	0	n/a	165226	KeyDown	41324	3	Middle	14
275.5450000000000	0	n/a	165328	KeyDown	41324	2	Ring	14
275.7783333333334	0	n/a	165468	KeyDown	41324	4	Index	14
276.1633333333334	0	n/a	165699	KeyDown	41324	4	Index	14
276.4300000000000	0	n/a	165859	KeyDown	41324	1	Little	14
276.7900000000000	0	n/a	166075	KeyDown	41324	3	Middle	14
276.9950000000000	0	n/a	166198	KeyDown	41324	2	Ring	14
277.2333333333333	0	n/a	166341	KeyDown	41324	4	Index	14
277.6766666666667	0	n/a	166607	KeyDown	41324	4	Index	14
277.9783333333334	0	n/a	166788	KeyDown	41324	1	Little	14
278.3900000000000	0	n/a	167035	KeyDown	41324	2	Ring	14
278.6966666666667	0	n/a	167219	KeyDown	41324	3	Middle	14
278.8350000000000	0	n/a	167302	KeyDown	41324	4	Index	14
279.3200000000000	0	n/a	167593	KeyDown	41324	4	Index	14
279.6666666666667	0	n/a	167801	KeyDown	41324	1	Little	14
279.9600000000000	0	n/a	167977	StopPractice	41324	n/a	n/a	14
279.9616666666667	0	n/a	167978	StartRest	XXXXX	n/a	n/a	14
289.9950000000000	0	n/a	173998	StopRest	XXXXX	n/a	n/a	14
289.9966666666667	0	UPPT001	173999	StartPractice	41324	n/a	n/a	15
290.5233333333334	0	n/a	174315	KeyDown	41324	4	Index	15
290.7516666666667	0	n/a	174452	KeyDown	41324	1	Little	15
291.0350000000000	0	n/a	174622	KeyDown	41324	3	Middle	15
291.2383333333333	0	n/a	174744	KeyDown	41324	2	Ring	15
291.4683333333334	0	n/a	174882	KeyDown	41324	4	Index	15
291.7733333333334	0	n/a	175065	KeyDown	41324	4	Index	15
292.0650000000000	0	n/a	175240	KeyDown	41324	1	Little	15
292.4283333333333	0	n/a	175458	KeyDown	41324	3	Middle	15
292.6133333333333	0	n/a	175569	KeyDown	41324	2	Ring	15
292.8783333333333	0	n/a	175728	KeyDown	41324	4	Index	15
293.1850000000000	0	n/a	175912	KeyDown	41324	4	Index	15
293.4383333333333	0	n/a	176064	KeyDown	41324	1	Little	15
293.7550000000000	0	n/a	176254	KeyDown	41324	3	Middle	15
293.9783333333334	0	n/a	176388	KeyDown	41324	2	Ring	15
294.2066666666667	0	n/a	176525	KeyDown	41324	4	Index	15
294.5133333333334	0	n/a	176709	KeyDown	41324	4	Index	15
295.1283333333333	0	n/a	177078	KeyDown	41324	1	Little	15
295.4933333333333	0	n/a	177297	KeyDown	41324	3	Middle	15
295.7383333333333	0	n/a	177444	KeyDown	41324	2	Ring	15
295.9950000000000	0	n/a	177598	KeyDown	41324	4	Index	15
296.3200000000000	0	n/a	177793	KeyDown	41324	4	Index	15
296.5883333333334	0	n/a	177954	KeyDown	41324	1	Little	15
296.8566666666667	0	n/a	178115	KeyDown	41324	3	Middle	15
297.0700000000000	0	n/a	178243	KeyDown	41324	2	Ring	15
297.3183333333333	0	n/a	178392	KeyDown	41324	4	Index	15
297.5983333333334	0	n/a	178560	KeyDown	41324	4	Index	15
297.8983333333334	0	n/a	178740	KeyDown	41324	1	Little	15
298.4350000000000	0	n/a	179062	KeyDown	41324	3	Middle	15
298.6516666666667	0	n/a	179192	KeyDown	41324	2	Ring	15
298.9133333333334	0	n/a	179349	KeyDown	41324	4	Index	15
299.2200000000000	0	n/a	179533	KeyDown	41324	4	Index	15
299.4883333333333	0	n/a	179694	KeyDown	41324	1	Little	15
299.8350000000000	0	n/a	179902	KeyDown	41324	3	Middle	15
300.0350000000000	0	n/a	180022	StopPractice	41324	n/a	n/a	15
300.0366666666667	0	n/a	180023	StartRest	XXXXX	n/a	n/a	15
310.0700000000000	0	n/a	186043	StopRest	XXXXX	n/a	n/a	15
310.0716666666667	0	UPPT001	186044	StartPractice	41324	n/a	n/a	16
310.6083333333333	0	n/a	186366	KeyDown	41324	4	Index	16
310.8583333333333	0	n/a	186516	KeyDown	41324	1	Little	16
311.1483333333334	0	n/a	186690	KeyDown	41324	3	Middle	16
311.3250000000000	0	n/a	186796	KeyDown	41324	2	Ring	16
311.5333333333334	0	n/a	186921	KeyDown	41324	4	Index	16
311.8850000000000	0	n/a	187132	KeyDown	41324	4	Index	16
312.1450000000000	0	n/a	187288	KeyDown	41324	1	Little	16
312.3966666666667	0	n/a	187439	KeyDown	41324	3	Middle	16
312.5883333333334	0	n/a	187554	KeyDown	41324	2	Ring	16
312.8200000000000	0	n/a	187693	KeyDown	41324	4	Index	16
313.1133333333333	0	n/a	187869	KeyDown	41324	4	Index	16
313.3933333333334	0	n/a	188037	KeyDown	41324	1	Little	16
313.7183333333334	0	n/a	188232	KeyDown	41324	3	Middle	16
313.9100000000000	0	n/a	188347	KeyDown	41324	2	Ring	16
314.1633333333334	0	n/a	188499	KeyDown	41324	4	Index	16
314.5283333333334	0	n/a	188718	KeyDown	41324	4	Index	16
314.8216666666667	0	n/a	188894	KeyDown	41324	3	Middle	16
315.4600000000000	0	n/a	189277	KeyDown	41324	1	Little	16
315.7083333333334	0	n/a	189426	KeyDown	41324	2	Ring	16
315.9066666666667	0	n/a	189545	KeyDown	41324	3	Middle	16
316.3850000000000	0	n/a	189832	KeyDown	41324	4	Index	16
316.7883333333334	0	n/a	190074	KeyDown	41324	1	Little	16
317.1100000000000	0	n/a	190267	KeyDown	41324	3	Middle	16
317.3383333333334	0	n/a	190404	KeyDown	41324	2	Ring	16
317.6516666666667	0	n/a	190592	KeyDown	41324	4	Index	16
318.2833333333334	0	n/a	190971	KeyDown	41324	4	Index	16
318.5583333333333	0	n/a	191136	KeyDown	41324	1	Little	16
318.8566666666667	0	n/a	191315	KeyDown	41324	3	Middle	16
319.0783333333334	0	n/a	191448	KeyDown	41324	2	Ring	16
319.3516666666667	0	n/a	191612	KeyDown	41324	4	Index	16
319.9233333333333	0	n/a	191955	KeyDown	41324	1	Little	16
320.1100000000000	0	n/a	192067	StopPractice	41324	n/a	n/a	16
320.1116666666667	0	n/a	192068	StartRest	XXXXX	n/a	n/a	16
330.1433333333334	0	n/a	198087	StopRest	XXXXX	n/a	n/a	16
330.1450000000000	0	UPPT001	198088	StartPractice	41324	n/a	n/a	17
330.6783333333333	0	n/a	198408	KeyDown	41324	4	Index	17
330.9483333333334	0	n/a	198570	KeyDown	41324	1	Little	17
331.2483333333333	0	n/a	198750	KeyDown	41324	3	Middle	17
331.4633333333334	0	n/a	198879	KeyDown	41324	2	Ring	17
331.6733333333333	0	n/a	199005	KeyDown	41324	1	Little	17
331.7833333333334	0	n/a	199071	KeyDown	41324	4	Index	17
332.1683333333334	0	n/a	199302	KeyDown	41324	4	Index	17
332.4950000000000	0	n/a	199498	KeyDown	41324	1	Little	17
332.7733333333334	0	n/a	199665	KeyDown	41324	3	Middle	17
333.0350000000000	0	n/a	199822	KeyDown	41324	2	Ring	17
333.3166666666667	0	n/a	199991	KeyDown	41324	4	Index	17
333.6233333333333	0	n/a	200175	KeyDown	41324	4	Index	17
333.9466666666667	0	n/a	200369	KeyDown	41324	1	Little	17
334.2783333333334	0	n/a	200568	KeyDown	41324	3	Middle	17
334.5083333333334	0	n/a	200706	KeyDown	41324	1	Little	17
334.5816666666667	0	n/a	200750	KeyDown	41324	2	Ring	17
334.8133333333333	0	n/a	200889	KeyDown	41324	4	Index	17
335.1316666666667	0	n/a	201080	KeyDown	41324	4	Index	17
335.5916666666667	0	n/a	201356	KeyDown	41324	1	Little	17
336.2033333333334	0	n/a	201723	KeyDown	41324	3	Middle	17
336.4083333333334	0	n/a	201846	KeyDown	41324	2	Ring	17
336.6466666666667	0	n/a	201989	KeyDown	41324	4	Index	17
336.9850000000000	0	n/a	202192	KeyDown	41324	4	Index	17
337.2616666666667	0	n/a	202358	KeyDown	41324	1	Little	17
337.9600000000000	0	n/a	202777	KeyDown	41324	3	Middle	17
338.1666666666667	0	n/a	202901	KeyDown	41324	2	Ring	17
338.3966666666667	0	n/a	203039	KeyDown	41324	4	Index	17
338.7866666666667	0	n/a	203273	KeyDown	41324	4	Index	17
339.0750000000000	0	n/a	203446	KeyDown	41324	1	Little	17
339.4066666666667	0	n/a	203645	KeyDown	41324	3	Middle	17
339.6316666666667	0	n/a	203780	KeyDown	41324	2	Ring	17
339.8766666666667	0	n/a	203927	KeyDown	41324	4	Index	17
340.1833333333333	0	n/a	204111	StopPractice	41324	n/a	n/a	17
340.1850000000000	0	n/a	204112	StartRest	XXXXX	n/a	n/a	17
350.2183333333334	0	n/a	210132	StopRest	XXXXX	n/a	n/a	17
350.2200000000000	0	UPPT001	210133	StartPractice	41324	n/a	n/a	18
350.8283333333334	0	n/a	210498	KeyDown	41324	4	Index	18
351.0583333333333	0	n/a	210636	KeyDown	41324	1	Little	18
351.3416666666667	0	n/a	210806	KeyDown	41324	3	Middle	18
351.5783333333334	0	n/a	210948	KeyDown	41324	2	Ring	18
351.8083333333333	0	n/a	211086	KeyDown	41324	4	Index	18
352.1400000000000	0	n/a	211285	KeyDown	41324	4	Index	18
352.4516666666667	0	n/a	211472	KeyDown	41324	1	Little	18
352.8516666666667	0	n/a	211712	KeyDown	41324	3	Middle	18
353.0783333333334	0	n/a	211848	KeyDown	41324	2	Ring	18
353.3383333333334	0	n/a	212004	KeyDown	41324	4	Index	18
353.7566666666667	0	n/a	212255	KeyDown	41324	4	Index	18
354.0716666666667	0	n/a	212444	KeyDown	41324	1	Little	18
354.3683333333333	0	n/a	212622	KeyDown	41324	3	Middle	18
354.6233333333333	0	n/a	212775	KeyDown	41324	2	Ring	18
354.8783333333333	0	n/a	212928	KeyDown	41324	4	Index	18
355.2500000000000	0	n/a	213151	KeyDown	41324	4	Index	18
355.5000000000000	0	n/a	213301	KeyDown	41324	1	Little	18
355.7800000000000	0	n/a	213469	KeyDown	41324	3	Middle	18
355.9816666666667	0	n/a	213590	KeyDown	41324	2	Ring	18
356.2516666666667	0	n/a	213752	KeyDown	41324	4	Index	18
356.5733333333334	0	n/a	213945	KeyDown	41324	4	Index	18
356.8483333333334	0	n/a	214110	KeyDown	41324	1	Little	18
357.5316666666667	0	n/a	214520	KeyDown	41324	3	Middle	18
357.7483333333333	0	n/a	214650	KeyDown	41324	2	Ring	18
358.0183333333334	0	n/a	214812	KeyDown	41324	4	Index	18
358.3433333333334	0	n/a	215007	KeyDown	41324	4	Index	18
358.6216666666667	0	n/a	215174	KeyDown	41324	1	Little	18
358.9233333333333	0	n/a	215355	KeyDown	41324	3	Middle	18
359.1516666666667	0	n/a	215492	KeyDown	41324	2	Ring	18
359.4433333333333	0	n/a	215667	KeyDown	41324	4	Index	18
359.8350000000000	0	n/a	215902	KeyDown	41324	4	Index	18
360.2583333333334	0	n/a	216156	StopPractice	41324	n/a	n/a	18
360.2600000000000	0	n/a	216157	StartRest	XXXXX	n/a	n/a	18
370.2933333333334	0	n/a	222177	StopRest	XXXXX	n/a	n/a	18
370.2950000000000	0	UPPT001	222178	StartPractice	41324	n/a	n/a	19
370.9033333333334	0	n/a	222543	KeyDown	41324	4	Index	19
371.4816666666667	0	n/a	222890	KeyDown	41324	1	Little	19
371.7750000000000	0	n/a	223066	KeyDown	41324	3	Middle	19
372.0166666666667	0	n/a	223211	KeyDown	41324	2	Ring	19
372.2450000000000	0	n/a	223348	KeyDown	41324	4	Index	19
372.5583333333333	0	n/a	223536	KeyDown	41324	4	Index	19
372.6716666666667	0	n/a	223604	KeyDown	41324	1	Little	19
373.3900000000000	0	n/a	224035	KeyDown	41324	3	Middle	19
373.6266666666667	0	n/a	224177	KeyDown	41324	2	Ring	19
373.9000000000000	0	n/a	224341	KeyDown	41324	4	Index	19
374.2750000000000	0	n/a	224566	KeyDown	41324	4	Index	19
374.4816666666667	0	n/a	224690	KeyDown	41324	1	Little	19
374.7816666666667	0	n/a	224870	KeyDown	41324	3	Middle	19
375.0283333333334	0	n/a	225018	KeyDown	41324	2	Ring	19
375.2716666666667	0	n/a	225164	KeyDown	41324	4	Index	19
375.6983333333334	0	n/a	225420	KeyDown	41324	4	Index	19
376.0633333333333	0	n/a	225639	KeyDown	41324	1	Little	19
376.6733333333333	0	n/a	226005	KeyDown	41324	3	Middle	19
376.8133333333333	0	n/a	226089	KeyDown	41324	2	Ring	19
377.1866666666667	0	n/a	226313	KeyDown	41324	4	Index	19
377.7066666666667	0	n/a	226625	KeyDown	41324	3	Middle	19
378.2466666666667	0	n/a	226949	KeyDown	41324	4	Index	19
378.7516666666667	0	n/a	227252	KeyDown	41324	1	Little	19
379.0666666666667	0	n/a	227441	KeyDown	41324	3	Middle	19
379.4066666666667	0	n/a	227645	KeyDown	41324	2	Ring	19
379.7150000000000	0	n/a	227830	KeyDown	41324	4	Index	19
380.3333333333334	0	n/a	228201	StopPractice	41324	n/a	n/a	19
380.3350000000000	0	n/a	228202	StartRest	XXXXX	n/a	n/a	19
390.3683333333333	0	n/a	234222	StopRest	XXXXX	n/a	n/a	19
390.3700000000000	0	UPPT001	234223	StartPractice	41324	n/a	n/a	20
390.8650000000000	0	n/a	234520	KeyDown	41324	4	Index	20
391.0966666666667	0	n/a	234659	KeyDown	41324	1	Little	20
391.3283333333334	0	n/a	234798	KeyDown	41324	3	Middle	20
391.5216666666667	0	n/a	234914	KeyDown	41324	2	Ring	20
391.9066666666667	0	n/a	235145	KeyDown	41324	4	Index	20
392.2233333333334	0	n/a	235335	KeyDown	41324	4	Index	20
392.5266666666667	0	n/a	235517	KeyDown	41324	1	Little	20
392.9183333333334	0	n/a	235752	KeyDown	41324	3	Middle	20
393.1783333333333	0	n/a	235908	KeyDown	41324	2	Ring	20
393.4683333333334	0	n/a	236082	KeyDown	41324	4	Index	20
393.7633333333334	0	n/a	236259	KeyDown	41324	4	Index	20
394.0133333333334	0	n/a	236409	KeyDown	41324	1	Little	20
394.2266666666667	0	n/a	236537	KeyDown	41324	3	Middle	20
394.4183333333334	0	n/a	236652	KeyDown	41324	2	Ring	20
394.6866666666667	0	n/a	236813	KeyDown	41324	4	Index	20
395.5716666666667	0	n/a	237344	KeyDown	41324	4	Index	20
395.8766666666667	0	n/a	237527	KeyDown	41324	1	Little	20
396.3033333333333	0	n/a	237783	KeyDown	41324	3	Middle	20
396.5416666666667	0	n/a	237926	KeyDown	41324	2	Ring	20
396.8650000000000	0	n/a	238120	KeyDown	41324	4	Index	20
397.7050000000000	0	n/a	238624	KeyDown	41324	4	Index	20
398.2300000000000	0	n/a	238939	KeyDown	41324	1	Little	20
398.5866666666667	0	n/a	239153	KeyDown	41324	3	Middle	20
398.8383333333334	0	n/a	239304	KeyDown	41324	1	Little	20
399.1733333333333	0	n/a	239505	KeyDown	41324	4	Index	20
399.7266666666667	0	n/a	239837	KeyDown	41324	4	Index	20
400.0833333333334	0	n/a	240051	KeyDown	41324	3	Middle	20
400.4083333333334	0	n/a	240246	StopPractice	41324	n/a	n/a	20
400.4100000000000	0	n/a	240247	StartRest	XXXXX	n/a	n/a	20
410.4433333333334	0	n/a	246267	StopRest	XXXXX	n/a	n/a	20
410.4450000000001	0	UPPT001	246268	StartPractice	41324	n/a	n/a	21
411.2416666666667	0	n/a	246746	KeyDown	41324	4	Index	21
411.4700000000000	0	n/a	246883	KeyDown	41324	1	Little	21
411.7866666666667	0	n/a	247073	KeyDown	41324	3	Middle	21
411.9916666666667	0	n/a	247196	KeyDown	41324	2	Ring	21
412.2133333333334	0	n/a	247329	KeyDown	41324	4	Index	21
412.6033333333334	0	n/a	247563	KeyDown	41324	4	Index	21
412.8616666666667	0	n/a	247718	KeyDown	41324	1	Little	21
413.1550000000000	0	n/a	247894	KeyDown	41324	3	Middle	21
413.2016666666667	0	n/a	247922	KeyDown	41324	2	Ring	21
413.4550000000000	0	n/a	248074	KeyDown	41324	1	Little	21
413.5033333333334	0	n/a	248103	KeyDown	41324	2	Ring	21
414.0533333333333	0	n/a	248433	KeyDown	41324	4	Index	21
414.3516666666667	0	n/a	248612	KeyDown	41324	1	Little	21
414.6933333333334	0	n/a	248817	KeyDown	41324	3	Middle	21
414.9350000000000	0	n/a	248962	KeyDown	41324	2	Ring	21
415.2516666666667	0	n/a	249152	KeyDown	41324	4	Index	21
415.6083333333333	0	n/a	249366	KeyDown	41324	4	Index	21
415.8783333333334	0	n/a	249528	KeyDown	41324	1	Little	21
416.2833333333334	0	n/a	249771	KeyDown	41324	2	Ring	21
416.3466666666667	0	n/a	249809	KeyDown	41324	3	Middle	21
417.1516666666667	0	n/a	250292	KeyDown	41324	4	Index	21
417.5816666666667	0	n/a	250550	KeyDown	41324	1	Little	21
417.9250000000000	0	n/a	250756	KeyDown	41324	3	Middle	21
418.1600000000000	0	n/a	250897	KeyDown	41324	2	Ring	21
418.4066666666667	0	n/a	251045	KeyDown	41324	4	Index	21
418.8483333333334	0	n/a	251310	KeyDown	41324	4	Index	21
419.2933333333334	0	n/a	251577	KeyDown	41324	1	Little	21
419.7150000000000	0	n/a	251830	KeyDown	41324	3	Middle	21
419.9333333333333	0	n/a	251961	KeyDown	41324	2	Ring	21
420.1600000000000	0	n/a	252097	KeyDown	41324	4	Index	21
420.4833333333333	0	n/a	252291	StopPractice	41324	n/a	n/a	21
420.4850000000000	0	n/a	252292	StartRest	XXXXX	n/a	n/a	21
430.5183333333334	0	n/a	258312	StopRest	XXXXX	n/a	n/a	21
430.5200000000000	0	UPPT001	258313	StartPractice	41324	n/a	n/a	22
431.0466666666667	0	n/a	258629	KeyDown	41324	4	Index	22
431.2966666666667	0	n/a	258779	KeyDown	41324	1	Little	22
431.7966666666667	0	n/a	259079	KeyDown	41324	3	Middle	22
432.0216666666667	0	n/a	259214	KeyDown	41324	2	Ring	22
432.2933333333334	0	n/a	259377	KeyDown	41324	4	Index	22
432.6233333333333	0	n/a	259575	KeyDown	41324	4	Index	22
432.9766666666667	0	n/a	259787	KeyDown	41324	1	Little	22
433.2883333333334	0	n/a	259974	KeyDown	41324	3	Middle	22
433.5200000000000	0	n/a	260113	KeyDown	41324	2	Ring	22
433.7950000000000	0	n/a	260278	KeyDown	41324	4	Index	22
434.1166666666667	0	n/a	260471	KeyDown	41324	4	Index	22
434.3983333333334	0	n/a	260640	KeyDown	41324	1	Little	22
434.6983333333334	0	n/a	260820	KeyDown	41324	3	Middle	22
434.9566666666667	0	n/a	260975	KeyDown	41324	2	Ring	22
435.2116666666667	0	n/a	261128	KeyDown	41324	4	Index	22
435.5266666666667	0	n/a	261317	KeyDown	41324	4	Index	22
436.1950000000001	0	n/a	261718	KeyDown	41324	3	Middle	22
437.0566666666667	0	n/a	262235	KeyDown	41324	2	Ring	22
437.6733333333333	0	n/a	262605	KeyDown	41324	4	Index	22
438.2400000000000	0	n/a	262945	KeyDown	41324	1	Little	22
438.6650000000000	0	n/a	263200	KeyDown	41324	3	Middle	22
438.8750000000000	0	n/a	263326	KeyDown	41324	2	Ring	22
439.0883333333334	0	n/a	263454	KeyDown	41324	4	Index	22
439.5550000000000	0	n/a	263734	KeyDown	41324	4	Index	22
439.8466666666667	0	n/a	263909	KeyDown	41324	1	Little	22
440.1933333333334	0	n/a	264117	KeyDown	41324	3	Middle	22
440.3883333333334	0	n/a	264234	KeyDown	41324	2	Ring	22
440.5583333333333	0	n/a	264336	StopPractice	41324	n/a	n/a	22
440.5600000000000	0	n/a	264337	StartRest	XXXXX	n/a	n/a	22
450.5933333333334	0	n/a	270357	StopRest	XXXXX	n/a	n/a	22
450.5950000000000	0	UPPT001	270358	StartPractice	41324	n/a	n/a	23
451.1716666666667	0	n/a	270704	KeyDown	41324	4	Index	23
451.4366666666667	0	n/a	270863	KeyDown	41324	1	Little	23
451.7266666666667	0	n/a	271037	KeyDown	41324	3	Middle	23
451.9716666666667	0	n/a	271184	KeyDown	41324	2	Ring	23
452.2133333333334	0	n/a	271329	KeyDown	41324	4	Index	23
452.5166666666667	0	n/a	271511	KeyDown	41324	4	Index	23
452.9650000000000	0	n/a	271780	KeyDown	41324	1	Little	23
453.3766666666667	0	n/a	272027	KeyDown	41324	3	Middle	23
453.6133333333333	0	n/a	272169	KeyDown	41324	2	Ring	23
453.8800000000001	0	n/a	272329	KeyDown	41324	4	Index	23
454.2066666666667	0	n/a	272525	KeyDown	41324	4	Index	23
454.7800000000000	0	n/a	272869	KeyDown	41324	1	Little	23
455.1850000000000	0	n/a	273112	KeyDown	41324	3	Middle	23
455.3766666666667	0	n/a	273227	KeyDown	41324	2	Ring	23
455.6116666666667	0	n/a	273368	KeyDown	41324	4	Index	23
455.9283333333333	0	n/a	273558	KeyDown	41324	4	Index	23
456.2666666666667	0	n/a	273761	KeyDown	41324	1	Little	23
456.6583333333334	0	n/a	273996	KeyDown	41324	3	Middle	23
456.8983333333334	0	n/a	274140	KeyDown	41324	2	Ring	23
457.1816666666667	0	n/a	274310	KeyDown	41324	4	Index	23
457.6166666666667	0	n/a	274571	KeyDown	41324	4	Index	23
458.0783333333334	0	n/a	274848	KeyDown	41324	1	Little	23
458.4566666666667	0	n/a	275075	KeyDown	41324	3	Middle	23
458.6666666666667	0	n/a	275201	KeyDown	41324	2	Ring	23
458.7783333333334	0	n/a	275268	KeyDown	41324	1	Little	23
458.9816666666667	0	n/a	275390	KeyDown	41324	4	Index	23
459.3433333333334	0	n/a	275607	KeyDown	41324	4	Index	23
459.9266666666667	0	n/a	275957	KeyDown	41324	1	Little	23
460.6333333333334	0	n/a	276381	StopPractice	41324	n/a	n/a	23
460.6350000000000	0	n/a	276382	StartRest	XXXXX	n/a	n/a	23
470.6683333333334	0	n/a	282402	StopRest	XXXXX	n/a	n/a	23
470.6700000000000	0	UPPT001	282403	StartPractice	41324	n/a	n/a	24
471.2433333333333	0	n/a	282747	KeyDown	41324	4	Index	24
471.5366666666667	0	n/a	282923	KeyDown	41324	1	Little	24
471.9633333333334	0	n/a	283179	KeyDown	41324	3	Middle	24
472.2133333333334	0	n/a	283329	KeyDown	41324	2	Ring	24
472.5150000000000	0	n/a	283510	KeyDown	41324	4	Index	24
472.8050000000000	0	n/a	283684	KeyDown	41324	4	Index	24
473.3216666666667	0	n/a	283994	KeyDown	41324	1	Little	24
473.6383333333334	0	n/a	284184	KeyDown	41324	3	Middle	24
473.8783333333334	0	n/a	284328	KeyDown	41324	2	Ring	24
474.0616666666667	0	n/a	284438	KeyDown	41324	4	Index	24
474.4233333333333	0	n/a	284655	KeyDown	41324	4	Index	24
474.7733333333334	0	n/a	284865	KeyDown	41324	1	Little	24
475.0716666666667	0	n/a	285044	KeyDown	41324	3	Middle	24
475.3266666666667	0	n/a	285197	KeyDown	41324	2	Ring	24
475.6200000000000	0	n/a	285373	KeyDown	41324	4	Index	24
475.9066666666667	0	n/a	285545	KeyDown	41324	4	Index	24
476.4016666666667	0	n/a	285842	KeyDown	41324	1	Little	24
477.3183333333334	0	n/a	286392	KeyDown	41324	3	Middle	24
477.4933333333333	0	n/a	286497	KeyDown	41324	2	Ring	24
477.8133333333334	0	n/a	286689	KeyDown	41324	4	Index	24
478.1866666666667	0	n/a	286913	KeyDown	41324	4	Index	24
479.0316666666667	0	n/a	287420	KeyDown	41324	1	Little	24
479.4250000000000	0	n/a	287656	KeyDown	41324	3	Middle	24
479.6666666666667	0	n/a	287801	KeyDown	41324	1	Little	24
480.0116666666667	0	n/a	288008	KeyDown	41324	4	Index	24
480.4566666666667	0	n/a	288275	KeyDown	41324	4	Index	24
480.7083333333334	0	n/a	288426	StopPractice	41324	n/a	n/a	24
480.7100000000000	0	n/a	288427	StartRest	XXXXX	n/a	n/a	24
490.7433333333333	0	n/a	294447	StopRest	XXXXX	n/a	n/a	24
490.7450000000000	0	UPPT001	294448	StartPractice	41324	n/a	n/a	25
491.2616666666667	0	n/a	294758	KeyDown	41324	4	Index	25
491.4966666666667	0	n/a	294899	KeyDown	41324	1	Little	25
491.7666666666667	0	n/a	295061	KeyDown	41324	3	Middle	25
492.0366666666667	0	n/a	295223	KeyDown	41324	2	Ring	25
492.2483333333334	0	n/a	295350	KeyDown	41324	4	Index	25
492.5866666666667	0	n/a	295553	KeyDown	41324	4	Index	25
492.9316666666667	0	n/a	295760	KeyDown	41324	1	Little	25
493.2050000000000	0	n/a	295924	KeyDown	41324	3	Middle	25
493.4483333333334	0	n/a	296070	KeyDown	41324	2	Ring	25
493.6583333333334	0	n/a	296196	KeyDown	41324	4	Index	25
493.9983333333334	0	n/a	296400	KeyDown	41324	4	Index	25
494.4050000000000	0	n/a	296644	KeyDown	41324	1	Little	25
494.6516666666667	0	n/a	296792	KeyDown	41324	3	Middle	25
494.8850000000000	0	n/a	296932	KeyDown	41324	2	Ring	25
495.1233333333334	0	n/a	297075	KeyDown	41324	4	Index	25
495.3983333333334	0	n/a	297240	KeyDown	41324	4	Index	25
495.7050000000000	0	n/a	297424	KeyDown	41324	1	Little	25
495.9816666666667	0	n/a	297590	KeyDown	41324	3	Middle	25
496.2033333333334	0	n/a	297723	KeyDown	41324	2	Ring	25
496.4450000000001	0	n/a	297868	KeyDown	41324	4	Index	25
496.7816666666667	0	n/a	298070	KeyDown	41324	4	Index	25
497.2016666666667	0	n/a	298322	KeyDown	41324	1	Little	25
497.9033333333334	0	n/a	298743	KeyDown	41324	3	Middle	25
498.1366666666667	0	n/a	298883	KeyDown	41324	2	Ring	25
498.4016666666667	0	n/a	299042	KeyDown	41324	1	Little	25
498.6416666666667	0	n/a	299186	KeyDown	41324	4	Index	25
499.0933333333334	0	n/a	299457	KeyDown	41324	4	Index	25
499.8083333333333	0	n/a	299886	KeyDown	41324	1	Little	25
500.2116666666667	0	n/a	300128	KeyDown	41324	3	Middle	25
500.3983333333334	0	n/a	300240	KeyDown	41324	2	Ring	25
500.6750000000000	0	n/a	300406	KeyDown	41324	4	Index	25
500.7833333333334	0	n/a	300471	StopPractice	41324	n/a	n/a	25
500.7850000000000	0	n/a	300472	StartRest	XXXXX	n/a	n/a	25
510.8333333333334	0	n/a	306501	StopRest	XXXXX	n/a	n/a	25
510.8350000000000	0	UPPT001	306502	StartPractice	41324	n/a	n/a	26
511.3250000000000	0	n/a	306796	KeyDown	41324	4	Index	26
511.5933333333334	0	n/a	306957	KeyDown	41324	1	Little	26
511.9750000000000	0	n/a	307186	KeyDown	41324	3	Middle	26
512.1700000000001	0	n/a	307303	KeyDown	41324	2	Ring	26
512.3900000000000	0	n/a	307435	KeyDown	41324	4	Index	26
512.8800000000000	0	n/a	307729	KeyDown	41324	4	Index	26
513.2233333333334	0	n/a	307935	KeyDown	41324	1	Little	26
513.5883333333334	0	n/a	308154	KeyDown	41324	3	Middle	26
513.7666666666667	0	n/a	308261	KeyDown	41324	2	Ring	26
514.0166666666667	0	n/a	308411	KeyDown	41324	4	Index	26
514.3966666666666	0	n/a	308639	KeyDown	41324	4	Index	26
514.8366666666667	0	n/a	308903	KeyDown	41324	1	Little	26
515.1883333333334	0	n/a	309114	KeyDown	41324	3	Middle	26
515.4066666666668	0	n/a	309245	KeyDown	41324	2	Ring	26
515.7716666666666	0	n/a	309464	KeyDown	41324	4	Index	26
516.3883333333333	0	n/a	309834	KeyDown	41324	4	Index	26
517.0066666666667	0	n/a	310205	KeyDown	41324	1	Little	26
517.3683333333333	0	n/a	310422	KeyDown	41324	3	Middle	26
517.5533333333334	0	n/a	310533	KeyDown	41324	2	Ring	26
517.8083333333334	0	n/a	310686	KeyDown	41324	4	Index	26
518.1966666666667	0	n/a	310919	KeyDown	41324	4	Index	26
518.4883333333333	0	n/a	311094	KeyDown	41324	1	Little	26
518.8566666666667	0	n/a	311315	KeyDown	41324	3	Middle	26
519.1033333333334	0	n/a	311463	KeyDown	41324	2	Ring	26
519.3766666666667	0	n/a	311627	KeyDown	41324	4	Index	26
519.7566666666667	0	n/a	311855	KeyDown	41324	4	Index	26
520.2116666666667	0	n/a	312128	KeyDown	41324	1	Little	26
520.5283333333334	0	n/a	312318	KeyDown	41324	3	Middle	26
520.7183333333334	0	n/a	312432	KeyDown	41324	2	Ring	26
520.8733333333333	0	n/a	312525	StopPractice	41324	n/a	n/a	26
520.8750000000000	0	n/a	312526	StartRest	XXXXX	n/a	n/a	26
530.9116666666667	0	n/a	318548	StopRest	XXXXX	n/a	n/a	26
530.9133333333334	0	UPPT001	318549	StartPractice	41324	n/a	n/a	27
531.3900000000000	0	n/a	318835	KeyDown	41324	4	Index	27
531.6916666666667	0	n/a	319016	KeyDown	41324	1	Little	27
531.9750000000000	0	n/a	319186	KeyDown	41324	3	Middle	27
532.1600000000001	0	n/a	319297	KeyDown	41324	2	Ring	27
532.3966666666666	0	n/a	319439	KeyDown	41324	4	Index	27
532.7000000000000	0	n/a	319621	KeyDown	41324	4	Index	27
532.9916666666667	0	n/a	319796	KeyDown	41324	1	Little	27
533.2750000000001	0	n/a	319966	KeyDown	41324	3	Middle	27
533.4800000000000	0	n/a	320089	KeyDown	41324	2	Ring	27
533.6800000000001	0	n/a	320209	KeyDown	41324	4	Index	27
534.0716666666667	0	n/a	320444	KeyDown	41324	4	Index	27
534.5733333333334	0	n/a	320745	KeyDown	41324	1	Little	27
534.8766666666667	0	n/a	320927	KeyDown	41324	3	Middle	27
535.1066666666667	0	n/a	321065	KeyDown	41324	2	Ring	27
535.3750000000000	0	n/a	321226	KeyDown	41324	4	Index	27
535.9300000000001	0	n/a	321559	KeyDown	41324	4	Index	27
536.4050000000001	0	n/a	321844	KeyDown	41324	1	Little	27
536.7266666666667	0	n/a	322037	KeyDown	41324	3	Middle	27
536.9266666666667	0	n/a	322157	KeyDown	41324	2	Ring	27
537.1766666666667	0	n/a	322307	KeyDown	41324	4	Index	27
537.2166666666667	0	n/a	322331	KeyDown	41324	2	Ring	27
537.5466666666667	0	n/a	322529	KeyDown	41324	4	Index	27
537.9366666666667	0	n/a	322763	KeyDown	41324	1	Little	27
538.2200000000000	0	n/a	322933	KeyDown	41324	3	Middle	27
538.4550000000000	0	n/a	323074	KeyDown	41324	2	Ring	27
538.7116666666667	0	n/a	323228	KeyDown	41324	4	Index	27
539.2100000000000	0	n/a	323527	KeyDown	41324	4	Index	27
539.6116666666667	0	n/a	323768	KeyDown	41324	1	Little	27
539.9616666666667	0	n/a	323978	KeyDown	41324	3	Middle	27
540.2316666666667	0	n/a	324140	KeyDown	41324	2	Ring	27
540.4483333333334	0	n/a	324270	KeyDown	41324	4	Index	27
540.8066666666667	0	n/a	324485	KeyDown	41324	4	Index	27
540.9516666666667	0	n/a	324572	StopPractice	41324	n/a	n/a	27
540.9533333333334	0	n/a	324573	StartRest	XXXXX	n/a	n/a	27
550.9833333333333	0	n/a	330591	StopRest	XXXXX	n/a	n/a	27
550.9850000000000	0	UPPT001	330592	StartPractice	41324	n/a	n/a	28
551.4666666666667	0	n/a	330881	KeyDown	41324	4	Index	28
551.7483333333333	0	n/a	331050	KeyDown	41324	1	Little	28
552.0383333333334	0	n/a	331224	KeyDown	41324	3	Middle	28
552.2716666666666	0	n/a	331364	KeyDown	41324	2	Ring	28
552.5266666666668	0	n/a	331517	KeyDown	41324	4	Index	28
552.8083333333334	0	n/a	331686	KeyDown	41324	4	Index	28
553.1383333333333	0	n/a	331884	KeyDown	41324	1	Little	28
553.4233333333334	0	n/a	332055	KeyDown	41324	3	Middle	28
553.6233333333333	0	n/a	332175	KeyDown	41324	2	Ring	28
553.8433333333334	0	n/a	332307	KeyDown	41324	4	Index	28
554.1416666666667	0	n/a	332486	KeyDown	41324	4	Index	28
554.4600000000000	0	n/a	332677	KeyDown	41324	1	Little	28
554.7433333333333	0	n/a	332847	KeyDown	41324	3	Middle	28
554.9483333333334	0	n/a	332970	KeyDown	41324	2	Ring	28
555.2116666666667	0	n/a	333128	KeyDown	41324	4	Index	28
555.4650000000000	0	n/a	333280	KeyDown	41324	4	Index	28
556.0216666666666	0	n/a	333614	KeyDown	41324	1	Little	28
556.4433333333334	0	n/a	333867	KeyDown	41324	3	Middle	28
556.6650000000001	0	n/a	334000	KeyDown	41324	2	Ring	28
556.9183333333334	0	n/a	334152	KeyDown	41324	4	Index	28
557.2216666666667	0	n/a	334334	KeyDown	41324	4	Index	28
557.7450000000000	0	n/a	334648	KeyDown	41324	1	Little	28
558.0716666666667	0	n/a	334844	KeyDown	41324	3	Middle	28
558.2800000000001	0	n/a	334969	KeyDown	41324	2	Ring	28
558.5600000000001	0	n/a	335137	KeyDown	41324	4	Index	28
558.9133333333334	0	n/a	335349	KeyDown	41324	4	Index	28
559.5933333333334	0	n/a	335757	KeyDown	41324	1	Little	28
560.1933333333334	0	n/a	336117	KeyDown	41324	3	Middle	28
560.3633333333333	0	n/a	336219	KeyDown	41324	2	Ring	28
560.6433333333333	0	n/a	336387	KeyDown	41324	4	Index	28
561.0233333333334	0	n/a	336615	StopPractice	41324	n/a	n/a	28
561.0250000000001	0	n/a	336616	StartRest	XXXXX	n/a	n/a	28
571.0600000000001	0	n/a	342637	StopRest	XXXXX	n/a	n/a	28
571.0616666666667	0	UPPT001	342638	StartPractice	41324	n/a	n/a	29
571.5250000000001	0	n/a	342916	KeyDown	41324	4	Index	29
571.8500000000000	0	n/a	343111	KeyDown	41324	1	Little	29
572.1383333333333	0	n/a	343284	KeyDown	41324	3	Middle	29
572.3983333333334	0	n/a	343440	KeyDown	41324	2	Ring	29
572.6583333333334	0	n/a	343596	KeyDown	41324	4	Index	29
572.9533333333334	0	n/a	343773	KeyDown	41324	4	Index	29
573.3200000000001	0	n/a	343993	KeyDown	41324	1	Little	29
573.6000000000000	0	n/a	344161	KeyDown	41324	3	Middle	29
573.8900000000000	0	n/a	344335	KeyDown	41324	2	Ring	29
574.0583333333334	0	n/a	344436	KeyDown	41324	4	Index	29
574.3483333333334	0	n/a	344610	KeyDown	41324	4	Index	29
574.8250000000000	0	n/a	344896	KeyDown	41324	1	Little	29
575.1033333333334	0	n/a	345063	KeyDown	41324	3	Middle	29
575.3050000000001	0	n/a	345184	KeyDown	41324	2	Ring	29
575.5316666666668	0	n/a	345320	KeyDown	41324	4	Index	29
575.7983333333334	0	n/a	345480	KeyDown	41324	4	Index	29
576.0700000000001	0	n/a	345643	KeyDown	41324	1	Little	29
576.3383333333334	0	n/a	345804	KeyDown	41324	3	Middle	29
576.6183333333333	0	n/a	345972	KeyDown	41324	2	Ring	29
576.9133333333334	0	n/a	346149	KeyDown	41324	4	Index	29
577.2483333333333	0	n/a	346350	KeyDown	41324	4	Index	29
577.7200000000000	0	n/a	346633	KeyDown	41324	1	Little	29
578.0733333333334	0	n/a	346845	KeyDown	41324	3	Middle	29
578.3150000000001	0	n/a	346990	KeyDown	41324	2	Ring	29
578.5050000000000	0	n/a	347104	KeyDown	41324	4	Index	29
578.8616666666667	0	n/a	347318	KeyDown	41324	4	Index	29
579.4666666666667	0	n/a	347681	KeyDown	41324	1	Little	29
579.7800000000001	0	n/a	347869	KeyDown	41324	3	Middle	29
580.1133333333333	0	n/a	348069	KeyDown	41324	2	Ring	29
580.4166666666667	0	n/a	348251	KeyDown	41324	4	Index	29
580.8100000000001	0	n/a	348487	KeyDown	41324	4	Index	29
581.1000000000000	0	n/a	348661	StopPractice	41324	n/a	n/a	29
581.1016666666667	0	n/a	348662	StartRest	XXXXX	n/a	n/a	29
591.1333333333333	0	n/a	354681	StopRest	XXXXX	n/a	n/a	29
591.1350000000000	0	UPPT001	354682	StartPractice	41324	n/a	n/a	30
591.5916666666667	0	n/a	354956	KeyDown	41324	4	Index	30
591.8566666666667	0	n/a	355115	KeyDown	41324	1	Little	30
592.1600000000001	0	n/a	355297	KeyDown	41324	3	Middle	30
592.4000000000001	0	n/a	355441	KeyDown	41324	1	Little	30
592.4516666666667	0	n/a	355472	KeyDown	41324	2	Ring	30
592.6650000000001	0	n/a	355600	KeyDown	41324	4	Index	30
593.0050000000000	0	n/a	355804	KeyDown	41324	4	Index	30
593.3466666666667	0	n/a	356009	KeyDown	41324	1	Little	30
593.7466666666667	0	n/a	356249	KeyDown	41324	3	Middle	30
594.0216666666668	0	n/a	356414	KeyDown	41324	2	Ring	30
594.2916666666667	0	n/a	356576	KeyDown	41324	4	Index	30
594.6183333333333	0	n/a	356772	KeyDown	41324	4	Index	30
594.8433333333334	0	n/a	356907	KeyDown	41324	1	Little	30
595.1483333333334	0	n/a	357090	KeyDown	41324	3	Middle	30
595.3633333333333	0	n/a	357219	KeyDown	41324	2	Ring	30
595.5983333333334	0	n/a	357360	KeyDown	41324	4	Index	30
595.9416666666667	0	n/a	357566	KeyDown	41324	4	Index	30
596.3566666666667	0	n/a	357815	KeyDown	41324	1	Little	30
596.7433333333333	0	n/a	358047	KeyDown	41324	3	Middle	30
596.9266666666667	0	n/a	358157	KeyDown	41324	2	Ring	30
597.1533333333334	0	n/a	358293	KeyDown	41324	4	Index	30
597.7200000000000	0	n/a	358633	KeyDown	41324	4	Index	30
598.1400000000000	0	n/a	358885	KeyDown	41324	1	Little	30
598.5100000000000	0	n/a	359107	KeyDown	41324	3	Middle	30
598.7166666666667	0	n/a	359231	KeyDown	41324	2	Ring	30
598.8483333333334	0	n/a	359310	KeyDown	41324	1	Little	30
599.0266666666668	0	n/a	359417	KeyDown	41324	4	Index	30
599.3166666666667	0	n/a	359591	KeyDown	41324	4	Index	30
599.8366666666667	0	n/a	359903	KeyDown	41324	3	Middle	30
600.6133333333333	0	n/a	360369	KeyDown	41324	3	Middle	30
600.7866666666667	0	n/a	360473	KeyDown	41324	2	Ring	30
601.0033333333333	0	n/a	360603	KeyDown	41324	4	Index	30
601.1733333333334	0	n/a	360705	StopPractice	41324	n/a	n/a	30
601.1750000000001	0	n/a	360706	StartRest	XXXXX	n/a	n/a	30
611.2083333333334	0	n/a	366726	StopRest	XXXXX	n/a	n/a	30
611.2100000000000	0	UPPT001	366727	StartPractice	41324	n/a	n/a	31
611.6766666666667	0	n/a	367007	KeyDown	41324	4	Index	31
612.1866666666667	0	n/a	367313	KeyDown	41324	1	Little	31
612.4650000000000	0	n/a	367480	KeyDown	41324	3	Middle	31
612.6750000000001	0	n/a	367606	KeyDown	41324	2	Ring	31
612.8716666666667	0	n/a	367724	KeyDown	41324	4	Index	31
613.1966666666667	0	n/a	367919	KeyDown	41324	4	Index	31
613.4800000000000	0	n/a	368089	KeyDown	41324	1	Little	31
613.7766666666668	0	n/a	368267	KeyDown	41324	3	Middle	31
614.0250000000001	0	n/a	368416	KeyDown	41324	2	Ring	31
614.2466666666667	0	n/a	368549	KeyDown	41324	4	Index	31
614.5716666666667	0	n/a	368744	KeyDown	41324	4	Index	31
615.0633333333334	0	n/a	369039	KeyDown	41324	1	Little	31
615.3766666666667	0	n/a	369227	KeyDown	41324	3	Middle	31
615.5766666666667	0	n/a	369347	KeyDown	41324	2	Ring	31
615.7933333333334	0	n/a	369477	KeyDown	41324	4	Index	31
616.0916666666667	0	n/a	369656	KeyDown	41324	4	Index	31
616.4166666666667	0	n/a	369851	KeyDown	41324	1	Little	31
616.7216666666667	0	n/a	370034	KeyDown	41324	3	Middle	31
616.9466666666667	0	n/a	370169	KeyDown	41324	2	Ring	31
617.2066666666667	0	n/a	370325	KeyDown	41324	4	Index	31
617.5150000000000	0	n/a	370510	KeyDown	41324	4	Index	31
617.9216666666667	0	n/a	370754	KeyDown	41324	1	Little	31
618.2050000000000	0	n/a	370924	KeyDown	41324	3	Middle	31
618.4250000000001	0	n/a	371056	KeyDown	41324	2	Ring	31
618.7383333333333	0	n/a	371244	KeyDown	41324	4	Index	31
619.1133333333333	0	n/a	371469	KeyDown	41324	1	Little	31
619.8433333333334	0	n/a	371907	KeyDown	41324	3	Middle	31
619.9983333333333	0	n/a	372000	KeyDown	41324	2	Ring	31
620.2833333333334	0	n/a	372171	KeyDown	41324	4	Index	31
620.5633333333334	0	n/a	372339	KeyDown	41324	4	Index	31
621.2483333333333	0	n/a	372750	StopPractice	41324	n/a	n/a	31
621.2500000000000	0	n/a	372751	StartRest	XXXXX	n/a	n/a	31
631.2833333333334	0	n/a	378771	StopRest	XXXXX	n/a	n/a	31
631.2850000000001	0	UPPT001	378772	StartPractice	41324	n/a	n/a	32
631.7133333333334	0	n/a	379029	KeyDown	41324	4	Index	32
631.9950000000000	0	n/a	379198	KeyDown	41324	1	Little	32
632.4733333333334	0	n/a	379485	KeyDown	41324	3	Middle	32
632.6800000000001	0	n/a	379609	KeyDown	41324	2	Ring	32
632.8833333333333	0	n/a	379731	KeyDown	41324	4	Index	32
633.1816666666667	0	n/a	379910	KeyDown	41324	4	Index	32
633.4733333333334	0	n/a	380085	KeyDown	41324	1	Little	32
633.7383333333333	0	n/a	380244	KeyDown	41324	3	Middle	32
633.9000000000001	0	n/a	380341	KeyDown	41324	2	Ring	32
634.2066666666667	0	n/a	380525	KeyDown	41324	4	Index	32
634.4916666666667	0	n/a	380696	KeyDown	41324	4	Index	32
634.7566666666667	0	n/a	380855	KeyDown	41324	1	Little	32
635.0966666666667	0	n/a	381059	KeyDown	41324	3	Middle	32
635.3466666666667	0	n/a	381209	KeyDown	41324	2	Ring	32
635.5733333333334	0	n/a	381345	KeyDown	41324	4	Index	32
635.9316666666667	0	n/a	381560	KeyDown	41324	4	Index	32
636.2916666666667	0	n/a	381776	KeyDown	41324	1	Little	32
636.6983333333334	0	n/a	382020	KeyDown	41324	3	Middle	32
636.8833333333333	0	n/a	382131	KeyDown	41324	2	Ring	32
637.4133333333334	0	n/a	382449	KeyDown	41324	4	Index	32
637.9733333333334	0	n/a	382785	KeyDown	41324	4	Index	32
638.3883333333333	0	n/a	383034	KeyDown	41324	1	Little	32
638.8216666666667	0	n/a	383294	KeyDown	41324	3	Middle	32
638.9016666666668	0	n/a	383342	KeyDown	41324	2	Ring	32
639.1333333333333	0	n/a	383481	KeyDown	41324	1	Little	32
639.2150000000000	0	n/a	383530	KeyDown	41324	4	Index	32
639.5883333333334	0	n/a	383754	KeyDown	41324	4	Index	32
640.0066666666667	0	n/a	384005	KeyDown	41324	1	Little	32
640.3850000000000	0	n/a	384232	KeyDown	41324	3	Middle	32
640.5533333333334	0	n/a	384333	KeyDown	41324	2	Ring	32
640.8133333333334	0	n/a	384489	KeyDown	41324	4	Index	32
641.3233333333334	0	n/a	384795	StopPractice	41324	n/a	n/a	32
641.3250000000000	0	n/a	384796	StartRest	XXXXX	n/a	n/a	32
651.3650000000000	0	n/a	390820	StopRest	XXXXX	n/a	n/a	32
651.3666666666667	0	UPPT001	390821	StartPractice	41324	n/a	n/a	33
651.8300000000000	0	n/a	391099	KeyDown	41324	4	Index	33
652.0983333333334	0	n/a	391260	KeyDown	41324	1	Little	33
652.4733333333334	0	n/a	391485	KeyDown	41324	3	Middle	33
652.5616666666667	0	n/a	391538	KeyDown	41324	2	Ring	33
652.7350000000000	0	n/a	391642	KeyDown	41324	1	Little	33
652.8966666666668	0	n/a	391739	KeyDown	41324	4	Index	33
653.2033333333334	0	n/a	391923	KeyDown	41324	4	Index	33
653.5700000000001	0	n/a	392143	KeyDown	41324	1	Little	33
653.9483333333334	0	n/a	392370	KeyDown	41324	3	Middle	33
654.0333333333334	0	n/a	392421	KeyDown	41324	2	Ring	33
654.1616666666667	0	n/a	392498	KeyDown	41324	1	Little	33
654.3050000000001	0	n/a	392584	KeyDown	41324	4	Index	33
654.6250000000000	0	n/a	392776	KeyDown	41324	4	Index	33
655.1416666666668	0	n/a	393086	KeyDown	41324	1	Little	33
655.5316666666668	0	n/a	393320	KeyDown	41324	3	Middle	33
655.7783333333334	0	n/a	393468	KeyDown	41324	2	Ring	33
656.0333333333334	0	n/a	393621	KeyDown	41324	4	Index	33
656.3233333333334	0	n/a	393795	KeyDown	41324	4	Index	33
656.9383333333334	0	n/a	394164	KeyDown	41324	1	Little	33
657.2733333333334	0	n/a	394365	KeyDown	41324	3	Middle	33
657.4650000000000	0	n/a	394480	KeyDown	41324	2	Ring	33
657.7100000000000	0	n/a	394627	KeyDown	41324	4	Index	33
657.9300000000001	0	n/a	394759	KeyDown	41324	1	Little	33
658.1833333333334	0	n/a	394911	KeyDown	41324	4	Index	33
658.5616666666667	0	n/a	395138	KeyDown	41324	1	Little	33
659.1050000000000	0	n/a	395464	KeyDown	41324	3	Middle	33
659.1350000000000	0	n/a	395482	KeyDown	41324	2	Ring	33
659.3500000000000	0	n/a	395611	KeyDown	41324	4	Index	33
659.7583333333333	0	n/a	395856	KeyDown	41324	4	Index	33
660.1666666666667	0	n/a	396101	KeyDown	41324	3	Middle	33
660.3683333333333	0	n/a	396222	KeyDown	41324	2	Ring	33
660.6133333333333	0	n/a	396369	KeyDown	41324	1	Little	33
660.9616666666667	0	n/a	396578	KeyDown	41324	4	Index	33
661.4050000000001	0	n/a	396844	StopPractice	41324	n/a	n/a	33
661.4066666666668	0	n/a	396845	StartRest	XXXXX	n/a	n/a	33
671.4500000000000	0	n/a	402871	StopRest	XXXXX	n/a	n/a	33
671.4516666666667	0	UPPT001	402872	StartPractice	41324	n/a	n/a	34
671.9616666666667	0	n/a	403178	KeyDown	41324	4	Index	34
672.3016666666667	0	n/a	403382	KeyDown	41324	1	Little	34
672.5083333333333	0	n/a	403506	KeyDown	41324	3	Middle	34
672.6566666666668	0	n/a	403595	KeyDown	41324	2	Ring	34
672.8950000000001	0	n/a	403738	KeyDown	41324	4	Index	34
673.2233333333334	0	n/a	403935	KeyDown	41324	4	Index	34
673.5183333333334	0	n/a	404112	KeyDown	41324	1	Little	34
673.7633333333333	0	n/a	404259	KeyDown	41324	3	Middle	34
673.8750000000000	0	n/a	404326	KeyDown	41324	2	Ring	34
674.0800000000000	0	n/a	404449	KeyDown	41324	4	Index	34
674.4200000000001	0	n/a	404653	KeyDown	41324	4	Index	34
674.7283333333334	0	n/a	404838	KeyDown	41324	1	Little	34
675.0033333333333	0	n/a	405003	KeyDown	41324	3	Middle	34
675.0850000000000	0	n/a	405052	KeyDown	41324	2	Ring	34
675.3083333333334	0	n/a	405186	KeyDown	41324	4	Index	34
675.6333333333333	0	n/a	405381	KeyDown	41324	4	Index	34
675.9650000000000	0	n/a	405580	KeyDown	41324	3	Middle	34
676.2333333333333	0	n/a	405741	KeyDown	41324	2	Ring	34
676.5216666666668	0	n/a	405914	KeyDown	41324	1	Little	34
676.6150000000000	0	n/a	405970	KeyDown	41324	2	Ring	34
676.8750000000000	0	n/a	406126	KeyDown	41324	4	Index	34
677.3966666666668	0	n/a	406439	KeyDown	41324	4	Index	34
677.7300000000000	0	n/a	406639	KeyDown	41324	1	Little	34
678.0333333333334	0	n/a	406821	KeyDown	41324	3	Middle	34
678.1633333333334	0	n/a	406899	KeyDown	41324	2	Ring	34
678.3833333333333	0	n/a	407031	KeyDown	41324	4	Index	34
678.6900000000001	0	n/a	407215	KeyDown	41324	4	Index	34
679.0966666666667	0	n/a	407459	KeyDown	41324	3	Middle	34
679.2583333333333	0	n/a	407556	KeyDown	41324	2	Ring	34
679.7200000000000	0	n/a	407833	KeyDown	41324	2	Ring	34
679.9316666666667	0	n/a	407960	KeyDown	41324	4	Index	34
680.5066666666667	0	n/a	408305	KeyDown	41324	1	Little	34
681.4050000000001	0	n/a	408844	KeyDown	41324	4	Index	34
681.4900000000000	0	n/a	408895	StopPractice	41324	n/a	n/a	34
681.4916666666667	0	n/a	408896	StartRest	XXXXX	n/a	n/a	34
691.5250000000001	0	n/a	414916	StopRest	XXXXX	n/a	n/a	34
691.5266666666668	0	UPPT001	414917	StartPractice	41324	n/a	n/a	35
692.0416666666667	0	n/a	415226	KeyDown	41324	4	Index	35
692.5750000000000	0	n/a	415546	KeyDown	41324	3	Middle	35
692.7600000000000	0	n/a	415657	KeyDown	41324	2	Ring	35
692.9733333333334	0	n/a	415785	KeyDown	41324	4	Index	35
693.4300000000001	0	n/a	416059	KeyDown	41324	4	Index	35
693.9050000000001	0	n/a	416344	KeyDown	41324	3	Middle	35
694.7083333333334	0	n/a	416826	KeyDown	41324	4	Index	35
694.9850000000000	0	n/a	416992	KeyDown	41324	1	Little	35
695.2983333333334	0	n/a	417180	KeyDown	41324	3	Middle	35
695.4450000000001	0	n/a	417268	KeyDown	41324	2	Ring	35
695.6100000000000	0	n/a	417367	KeyDown	41324	4	Index	35
695.9133333333334	0	n/a	417549	KeyDown	41324	4	Index	35
696.2283333333334	0	n/a	417738	KeyDown	41324	1	Little	35
696.4616666666667	0	n/a	417878	KeyDown	41324	3	Middle	35
696.6250000000000	0	n/a	417976	KeyDown	41324	2	Ring	35
696.8216666666667	0	n/a	418094	KeyDown	41324	4	Index	35
697.1300000000000	0	n/a	418279	KeyDown	41324	4	Index	35
697.4583333333334	0	n/a	418476	KeyDown	41324	1	Little	35
697.7866666666667	0	n/a	418673	KeyDown	41324	3	Middle	35
697.8683333333333	0	n/a	418722	KeyDown	41324	2	Ring	35
698.1300000000000	0	n/a	418879	KeyDown	41324	4	Index	35
698.8666666666667	0	n/a	419321	KeyDown	41324	1	Little	35
699.5900000000000	0	n/a	419755	KeyDown	41324	3	Middle	35
699.6883333333334	0	n/a	419814	KeyDown	41324	2	Ring	35
699.9233333333334	0	n/a	419955	KeyDown	41324	4	Index	35
700.3183333333334	0	n/a	420192	KeyDown	41324	4	Index	35
701.1916666666667	0	n/a	420716	KeyDown	41324	1	Little	35
701.5500000000001	0	n/a	420931	KeyDown	41324	2	Ring	35
701.5650000000001	0	n/a	420940	StopPractice	41324	n/a	n/a	35
701.5666666666667	0	n/a	420941	StartRest	XXXXX	n/a	n/a	35
711.5983333333334	0	n/a	426960	StopRest	XXXXX	n/a	n/a	35
711.6000000000000	0	UPPT001	426961	StartPractice	41324	n/a	n/a	36
712.1450000000001	0	n/a	427288	KeyDown	41324	4	Index	36
712.6216666666667	0	n/a	427574	KeyDown	41324	3	Middle	36
713.3350000000000	0	n/a	428002	KeyDown	41324	4	Index	36
713.7133333333334	0	n/a	428229	KeyDown	41324	1	Little	36
714.1016666666667	0	n/a	428462	KeyDown	41324	2	Ring	36
714.2633333333334	0	n/a	428559	KeyDown	41324	3	Middle	36
714.4016666666668	0	n/a	428642	KeyDown	41324	2	Ring	36
714.5600000000001	0	n/a	428737	KeyDown	41324	4	Index	36
714.8716666666667	0	n/a	428924	KeyDown	41324	4	Index	36
715.2300000000000	0	n/a	429139	KeyDown	41324	1	Little	36
715.6116666666667	0	n/a	429368	KeyDown	41324	3	Middle	36
715.8566666666667	0	n/a	429515	KeyDown	41324	2	Ring	36
716.0550000000001	0	n/a	429634	KeyDown	41324	4	Index	36
716.5383333333334	0	n/a	429924	KeyDown	41324	4	Index	36
716.8750000000000	0	n/a	430126	KeyDown	41324	1	Little	36
717.2266666666667	0	n/a	430337	KeyDown	41324	3	Middle	36
717.2783333333334	0	n/a	430368	KeyDown	41324	2	Ring	36
717.6900000000001	0	n/a	430615	KeyDown	41324	4	Index	36
718.0666666666667	0	n/a	430841	KeyDown	41324	4	Index	36
718.9066666666668	0	n/a	431345	KeyDown	41324	1	Little	36
719.4433333333334	0	n/a	431667	KeyDown	41324	3	Middle	36
719.6616666666667	0	n/a	431798	KeyDown	41324	2	Ring	36
719.9333333333334	0	n/a	431961	KeyDown	41324	4	Index	36
720.2616666666667	0	n/a	432158	KeyDown	41324	4	Index	36
720.8050000000001	0	n/a	432484	KeyDown	41324	3	Middle	36
721.6383333333334	0	n/a	432984	StopPractice	41324	n/a	n/a	36
721.6400000000001	0	n/a	432985	StartRest	XXXXX	n/a	n/a	36
731.6750000000001	0	n/a	439006	StopRest	XXXXX	n/a	n/a	36
