onset	duration	channel	onset_sample_idx	event_type	target_sequence	keypress_id	finger_label	trial_number
12.2716666666667	0	UPPT001	7364	StartPractice	41324	n/a	n/a	1
12.9400000000000	0	n/a	7765	KeyDown	41324	4	Index	1
13.0700000000000	0	n/a	7843	KeyDown	41324	1	Little	1
13.7100000000000	0	n/a	8227	KeyDown	41324	3	Middle	1
13.8283333333333	0	n/a	8298	KeyDown	41324	2	Ring	1
14.5233333333333	0	n/a	8715	KeyDown	41324	4	Index	1
14.7316666666667	0	n/a	8840	KeyDown	41324	4	Index	1
15.0000000000000	0	n/a	9001	KeyDown	41324	1	Little	1
15.4200000000000	0	n/a	9253	KeyDown	41324	3	Middle	1
15.5733333333333	0	n/a	9345	KeyDown	41324	2	Ring	1
15.8166666666667	0	n/a	9491	KeyDown	41324	4	Index	1
16.1083333333333	0	n/a	9666	KeyDown	41324	1	Little	1
16.5916666666667	0	n/a	9956	KeyDown	41324	4	Index	1
16.9300000000000	0	n/a	10159	KeyDown	41324	1	Little	1
17.3450000000000	0	n/a	10408	KeyDown	41324	3	Middle	1
17.6633333333333	0	n/a	10599	KeyDown	41324	2	Ring	1
17.9816666666667	0	n/a	10790	KeyDown	41324	4	Index	1
18.1916666666667	0	n/a	10916	KeyDown	41324	4	Index	1
18.4016666666667	0	n/a	11042	KeyDown	41324	1	Little	1
18.6183333333333	0	n/a	11172	KeyDown	41324	3	Middle	1
18.7583333333333	0	n/a	11256	KeyDown	41324	2	Ring	1
18.9633333333333	0	n/a	11379	KeyDown	41324	4	Index	1
19.1250000000000	0	n/a	11476	KeyDown	41324	4	Index	1
19.2883333333333	0	n/a	11574	KeyDown	41324	1	Little	1
19.4550000000000	0	n/a	11674	KeyDown	41324	3	Middle	1
19.6000000000000	0	n/a	11761	KeyDown	41324	2	Ring	1
19.7983333333333	0	n/a	11880	KeyDown	41324	4	Index	1
19.9450000000000	0	n/a	11968	KeyDown	41324	4	Index	1
20.0766666666667	0	n/a	12047	KeyDown	41324	1	Little	1
20.2800000000000	0	n/a	12169	KeyDown	41324	3	Middle	1
20.4133333333333	0	n/a	12249	KeyDown	41324	2	Ring	1
20.6083333333333	0	n/a	12366	KeyDown	41324	4	Index	1
20.7533333333333	0	n/a	12453	KeyDown	41324	4	Index	1
20.8783333333333	0	n/a	12528	KeyDown	41324	1	Little	1
21.0650000000000	0	n/a	12640	KeyDown	41324	3	Middle	1
21.1950000000000	0	n/a	12718	KeyDown	41324	2	Ring	1
21.3833333333333	0	n/a	12831	KeyDown	41324	4	Index	1
21.5233333333333	0	n/a	12915	KeyDown	41324	4	Index	1
21.6450000000000	0	n/a	12988	KeyDown	41324	1	Little	1
21.7783333333333	0	n/a	13068	KeyDown	41324	3	Middle	1
21.9233333333333	0	n/a	13155	KeyDown	41324	2	Ring	1
22.0966666666667	0	n/a	13259	KeyDown	41324	4	Index	1
22.2533333333333	0	n/a	13353	KeyDown	41324	4	Index	1
22.3183333333333	0	n/a	13392	StopPractice	41324	n/a	n/a	1
22.3200000000000	0	n/a	13393	StartRest	XXXXX	n/a	n/a	1
32.3550000000000	0	n/a	19414	StopRest	XXXXX	n/a	n/a	1
32.3566666666667	0	UPPT001	19415	StartPractice	41324	n/a	n/a	2
32.7033333333333	0	n/a	19623	KeyDown	41324	4	Index	2
32.8600000000000	0	n/a	19717	KeyDown	41324	1	Little	2
33.1083333333333	0	n/a	19866	KeyDown	41324	3	Middle	2
33.2300000000000	0	n/a	19939	KeyDown	41324	2	Ring	2
33.4066666666667	0	n/a	20045	KeyDown	41324	4	Index	2
33.5716666666667	0	n/a	20144	KeyDown	41324	4	Index	2
33.7100000000000	0	n/a	20227	KeyDown	41324	1	Little	2
33.8866666666667	0	n/a	20333	KeyDown	41324	3	Middle	2
34.0150000000000	0	n/a	20410	KeyDown	41324	2	Ring	2
34.1933333333333	0	n/a	20517	KeyDown	41324	4	Index	2
34.3400000000000	0	n/a	20605	KeyDown	41324	4	Index	2
34.4750000000000	0	n/a	20686	KeyDown	41324	1	Little	2
34.7416666666667	0	n/a	20846	KeyDown	41324	3	Middle	2
34.9083333333333	0	n/a	20946	KeyDown	41324	2	Ring	2
35.0916666666667	0	n/a	21056	KeyDown	41324	4	Index	2
35.2383333333333	0	n/a	21144	KeyDown	41324	4	Index	2
35.3600000000000	0	n/a	21217	KeyDown	41324	1	Little	2
35.5283333333333	0	n/a	21318	KeyDown	41324	3	Middle	2
35.6550000000000	0	n/a	21394	KeyDown	41324	2	Ring	2
35.8266666666667	0	n/a	21497	KeyDown	41324	4	Index	2
35.9816666666667	0	n/a	21590	KeyDown	41324	4	Index	2
36.1116666666667	0	n/a	21668	KeyDown	41324	1	Little	2
36.3000000000000	0	n/a	21781	KeyDown	41324	3	Middle	2
36.4283333333333	0	n/a	21858	KeyDown	41324	2	Ring	2
36.6150000000000	0	n/a	21970	KeyDown	41324	4	Index	2
36.7816666666667	0	n/a	22070	KeyDown	41324	4	Index	2
36.8833333333333	0	n/a	22131	KeyDown	41324	1	Little	2
37.0533333333333	0	n/a	22233	KeyDown	41324	3	Middle	2
37.1733333333333	0	n/a	22305	KeyDown	41324	2	Ring	2
37.3500000000000	0	n/a	22411	KeyDown	41324	4	Index	2
37.4733333333333	0	n/a	22485	KeyDown	41324	4	Index	2
37.5950000000000	0	n/a	22558	KeyDown	41324	1	Little	2
37.7583333333333	0	n/a	22656	KeyDown	41324	3	Middle	2
37.8683333333333	0	n/a	22722	KeyDown	41324	2	Ring	2
38.0566666666667	0	n/a	22835	KeyDown	41324	4	Index	2
38.2033333333333	0	n/a	22923	KeyDown	41324	4	Index	2
38.3116666666667	0	n/a	22988	KeyDown	41324	1	Little	2
38.4583333333333	0	n/a	23076	KeyDown	41324	3	Middle	2
38.6116666666667	0	n/a	23168	KeyDown	41324	2	Ring	2
38.8000000000000	0	n/a	23281	KeyDown	41324	4	Index	2
38.9650000000000	0	n/a	23380	KeyDown	41324	4	Index	2
39.0833333333333	0	n/a	23451	KeyDown	41324	1	Little	2
39.2283333333333	0	n/a	23538	KeyDown	41324	3	Middle	2
39.3516666666667	0	n/a	23612	KeyDown	41324	2	Ring	2
39.5150000000000	0	n/a	23710	KeyDown	41324	4	Index	2
39.6600000000000	0	n/a	23797	KeyDown	41324	4	Index	2
39.7733333333333	0	n/a	23865	KeyDown	41324	1	Little	2
39.9083333333333	0	n/a	23946	KeyDown	41324	3	Middle	2
40.0366666666667	0	n/a	24023	KeyDown	41324	2	Ring	2
40.2533333333333	0	n/a	24153	KeyDown	41324	4	Index	2
40.3833333333333	0	n/a	24231	KeyDown	41324	4	Index	2
40.4650000000000	0	n/a	24280	KeyDown	41324	1	Little	2
40.6083333333333	0	n/a	24366	KeyDown	41324	2	Ring	2
40.6100000000000	0	n/a	24367	KeyDown	41324	3	Middle	2
40.8533333333333	0	n/a	24513	KeyDown	41324	2	Ring	2
41.0150000000000	0	n/a	24610	KeyDown	41324	4	Index	2
41.1650000000000	0	n/a	24700	KeyDown	41324	4	Index	2
41.2533333333333	0	n/a	24753	KeyDown	41324	1	Little	2
41.4233333333333	0	n/a	24855	KeyDown	41324	3	Middle	2
41.5833333333333	0	n/a	24951	KeyDown	41324	2	Ring	2
41.7433333333333	0	n/a	25047	KeyDown	41324	4	Index	2
41.9183333333333	0	n/a	25152	KeyDown	41324	4	Index	2
42.0016666666667	0	n/a	25202	KeyDown	41324	1	Little	2
42.1833333333333	0	n/a	25311	KeyDown	41324	3	Middle	2
42.3200000000000	0	n/a	25393	KeyDown	41324	2	Ring	2
42.4033333333333	0	n/a	25443	StopPractice	41324	n/a	n/a	2
42.4050000000000	0	n/a	25444	StartRest	XXXXX	n/a	n/a	2
52.4466666666667	0	n/a	31469	StopRest	XXXXX	n/a	n/a	2
52.4483333333333	0	UPPT001	31470	StartPractice	41324	n/a	n/a	3
52.7400000000000	0	n/a	31645	KeyDown	41324	4	Index	3
52.8800000000000	0	n/a	31729	KeyDown	41324	1	Little	3
53.0550000000000	0	n/a	31834	KeyDown	41324	3	Middle	3
53.1800000000000	0	n/a	31909	KeyDown	41324	2	Ring	3
53.3600000000000	0	n/a	32017	KeyDown	41324	4	Index	3
53.5083333333333	0	n/a	32106	KeyDown	41324	4	Index	3
53.6216666666667	0	n/a	32174	KeyDown	41324	1	Little	3
53.7833333333333	0	n/a	32271	KeyDown	41324	3	Middle	3
53.9350000000000	0	n/a	32362	KeyDown	41324	2	Ring	3
54.1100000000000	0	n/a	32467	KeyDown	41324	4	Index	3
54.2833333333333	0	n/a	32571	KeyDown	41324	4	Index	3
54.3866666666667	0	n/a	32633	KeyDown	41324	1	Little	3
54.7200000000000	0	n/a	32833	KeyDown	41324	3	Middle	3
54.8466666666667	0	n/a	32909	KeyDown	41324	2	Ring	3
55.0200000000000	0	n/a	33013	KeyDown	41324	4	Index	3
55.1966666666667	0	n/a	33119	KeyDown	41324	4	Index	3
55.2783333333333	0	n/a	33168	KeyDown	41324	1	Little	3
55.4333333333333	0	n/a	33261	KeyDown	41324	3	Middle	3
55.5683333333333	0	n/a	33342	KeyDown	41324	2	Ring	3
55.7316666666667	0	n/a	33440	KeyDown	41324	4	Index	3
55.8983333333333	0	n/a	33540	KeyDown	41324	4	Index	3
55.9833333333333	0	n/a	33591	KeyDown	41324	1	Little	3
56.1800000000000	0	n/a	33709	KeyDown	41324	3	Middle	3
56.3250000000000	0	n/a	33796	KeyDown	41324	2	Ring	3
56.5000000000000	0	n/a	33901	KeyDown	41324	4	Index	3
56.6666666666667	0	n/a	34001	KeyDown	41324	4	Index	3
56.7600000000000	0	n/a	34057	KeyDown	41324	1	Little	3
56.9350000000000	0	n/a	34162	KeyDown	41324	3	Middle	3
57.0700000000000	0	n/a	34243	KeyDown	41324	2	Ring	3
57.2350000000000	0	n/a	34342	KeyDown	41324	4	Index	3
57.4033333333333	0	n/a	34443	KeyDown	41324	4	Index	3
57.5083333333333	0	n/a	34506	KeyDown	41324	1	Little	3
57.6700000000000	0	n/a	34603	KeyDown	41324	3	Middle	3
57.8100000000000	0	n/a	34687	KeyDown	41324	2	Ring	3
57.9966666666667	0	n/a	34799	KeyDown	41324	4	Index	3
58.1383333333333	0	n/a	34884	KeyDown	41324	4	Index	3
58.2700000000000	0	n/a	34963	KeyDown	41324	1	Little	3
58.4450000000000	0	n/a	35068	KeyDown	41324	3	Middle	3
58.5800000000000	0	n/a	35149	KeyDown	41324	2	Ring	3
58.7466666666667	0	n/a	35249	KeyDown	41324	4	Index	3
58.9166666666667	0	n/a	35351	KeyDown	41324	4	Index	3
59.0200000000000	0	n/a	35413	KeyDown	41324	1	Little	3
59.1883333333333	0	n/a	35514	KeyDown	41324	3	Middle	3
59.3516666666667	0	n/a	35612	KeyDown	41324	2	Ring	3
59.4800000000000	0	n/a	35689	KeyDown	41324	4	Index	3
59.6366666666667	0	n/a	35783	KeyDown	41324	4	Index	3
59.7650000000000	0	n/a	35860	KeyDown	41324	1	Little	3
59.9100000000000	0	n/a	35947	KeyDown	41324	3	Middle	3
60.0516666666667	0	n/a	36032	KeyDown	41324	2	Ring	3
60.2150000000000	0	n/a	36130	KeyDown	41324	4	Index	3
60.3650000000000	0	n/a	36220	KeyDown	41324	4	Index	3
60.4950000000000	0	n/a	36298	KeyDown	41324	1	Little	3
60.6333333333333	0	n/a	36381	KeyDown	41324	3	Middle	3
60.7550000000000	0	n/a	36454	KeyDown	41324	2	Ring	3
60.8966666666667	0	n/a	36539	KeyDown	41324	4	Index	3
61.0366666666667	0	n/a	36623	KeyDown	41324	4	Index	3
61.1733333333333	0	n/a	36705	KeyDown	41324	1	Little	3
61.3116666666667	0	n/a	36788	KeyDown	41324	3	Middle	3
61.4316666666667	0	n/a	36860	KeyDown	41324	2	Ring	3
61.5800000000000	0	n/a	36949	KeyDown	41324	4	Index	3
61.7400000000000	0	n/a	37045	KeyDown	41324	4	Index	3
61.8433333333333	0	n/a	37107	KeyDown	41324	1	Little	3
61.9866666666667	0	n/a	37193	KeyDown	41324	3	Middle	3
62.1416666666667	0	n/a	37286	KeyDown	41324	2	Ring	3
62.2966666666667	0	n/a	37379	KeyDown	41324	4	Index	3
62.4950000000000	0	n/a	37498	StopPractice	41324	n/a	n/a	3
62.4966666666667	0	n/a	37499	StartRest	XXXXX	n/a	n/a	3
72.5383333333333	0	n/a	43524	StopRest	XXXXX	n/a	n/a	3
72.5400000000000	0	UPPT001	43525	StartPractice	41324	n/a	n/a	4
72.8683333333333	0	n/a	43722	KeyDown	41324	4	Index	4
73.0316666666667	0	n/a	43820	KeyDown	41324	3	Middle	4
73.5866666666667	0	n/a	44153	KeyDown	41324	4	Index	4
73.9900000000000	0	n/a	44395	KeyDown	41324	1	Little	4
74.2016666666667	0	n/a	44522	KeyDown	41324	3	Middle	4
74.3266666666667	0	n/a	44597	KeyDown	41324	2	Ring	4
74.4566666666667	0	n/a	44675	KeyDown	41324	4	Index	4
74.6400000000000	0	n/a	44785	KeyDown	41324	4	Index	4
74.7416666666667	0	n/a	44846	KeyDown	41324	1	Little	4
74.8833333333333	0	n/a	44931	KeyDown	41324	3	Middle	4
75.0083333333333	0	n/a	45006	KeyDown	41324	2	Ring	4
75.1900000000000	0	n/a	45115	KeyDown	41324	4	Index	4
75.3000000000000	0	n/a	45181	KeyDown	41324	4	Index	4
75.5183333333333	0	n/a	45312	KeyDown	41324	1	Little	4
75.6583333333333	0	n/a	45396	KeyDown	41324	3	Middle	4
75.7933333333333	0	n/a	45477	KeyDown	41324	2	Ring	4
75.9850000000000	0	n/a	45592	KeyDown	41324	4	Index	4
76.1266666666667	0	n/a	45677	KeyDown	41324	4	Index	4
76.2350000000000	0	n/a	45742	KeyDown	41324	1	Little	4
76.3850000000000	0	n/a	45832	KeyDown	41324	3	Middle	4
76.5183333333333	0	n/a	45912	KeyDown	41324	2	Ring	4
76.6800000000000	0	n/a	46009	KeyDown	41324	4	Index	4
76.8383333333333	0	n/a	46104	KeyDown	41324	4	Index	4
76.9233333333333	0	n/a	46155	KeyDown	41324	1	Little	4
77.0866666666667	0	n/a	46253	KeyDown	41324	3	Middle	4
77.2366666666667	0	n/a	46343	KeyDown	41324	2	Ring	4
77.3850000000000	0	n/a	46432	KeyDown	41324	4	Index	4
77.5666666666667	0	n/a	46541	KeyDown	41324	4	Index	4
77.6366666666667	0	n/a	46583	KeyDown	41324	1	Little	4
77.7833333333333	0	n/a	46671	KeyDown	41324	3	Middle	4
77.9183333333333	0	n/a	46752	KeyDown	41324	2	Ring	4
78.0733333333333	0	n/a	46845	KeyDown	41324	4	Index	4
78.2316666666667	0	n/a	46940	KeyDown	41324	4	Index	4
78.3466666666667	0	n/a	47009	KeyDown	41324	1	Little	4
78.4700000000000	0	n/a	47083	KeyDown	41324	3	Middle	4
78.6133333333333	0	n/a	47169	KeyDown	41324	2	Ring	4
78.7633333333333	0	n/a	47259	KeyDown	41324	4	Index	4
78.9166666666667	0	n/a	47351	KeyDown	41324	4	Index	4
78.9966666666667	0	n/a	47399	KeyDown	41324	1	Little	4
79.4266666666667	0	n/a	47657	KeyDown	41324	3	Middle	4
79.5650000000000	0	n/a	47740	KeyDown	41324	2	Ring	4
79.7666666666667	0	n/a	47861	KeyDown	41324	4	Index	4
79.9116666666667	0	n/a	47948	KeyDown	41324	4	Index	4
79.9866666666667	0	n/a	47993	KeyDown	41324	1	Little	4
80.1433333333333	0	n/a	48087	KeyDown	41324	3	Middle	4
80.2683333333333	0	n/a	48162	KeyDown	41324	2	Ring	4
80.4333333333333	0	n/a	48261	KeyDown	41324	4	Index	4
80.6033333333333	0	n/a	48363	KeyDown	41324	4	Index	4
80.6800000000000	0	n/a	48409	KeyDown	41324	1	Little	4
80.8883333333333	0	n/a	48534	KeyDown	41324	3	Middle	4
81.0716666666667	0	n/a	48644	KeyDown	41324	2	Ring	4
81.2316666666667	0	n/a	48740	KeyDown	41324	4	Index	4
81.3983333333333	0	n/a	48840	KeyDown	41324	4	Index	4
81.4533333333333	0	n/a	48873	KeyDown	41324	1	Little	4
81.5950000000000	0	n/a	48958	KeyDown	41324	3	Middle	4
81.7433333333333	0	n/a	49047	KeyDown	41324	2	Ring	4
81.9200000000000	0	n/a	49153	KeyDown	41324	4	Index	4
82.0533333333333	0	n/a	49233	KeyDown	41324	4	Index	4
82.1483333333333	0	n/a	49290	KeyDown	41324	1	Little	4
82.2933333333333	0	n/a	49377	KeyDown	41324	3	Middle	4
82.4216666666667	0	n/a	49454	KeyDown	41324	2	Ring	4
82.5866666666667	0	n/a	49553	StopPractice	41324	n/a	n/a	4
82.5883333333333	0	n/a	49554	StartRest	XXXXX	n/a	n/a	4
92.6300000000000	0	n/a	55579	StopRest	XXXXX	n/a	n/a	4
92.6316666666667	0	UPPT001	55580	StartPractice	41324	n/a	n/a	5
92.8733333333333	0	n/a	55725	KeyDown	41324	4	Index	5
93.0916666666667	0	n/a	55856	KeyDown	41324	1	Little	5
93.1150000000000	0	n/a	55870	KeyDown	41324	2	Ring	5
93.4583333333333	0	n/a	56076	KeyDown	41324	3	Middle	5
93.7133333333333	0	n/a	56229	KeyDown	41324	2	Ring	5
93.9233333333333	0	n/a	56355	KeyDown	41324	4	Index	5
94.0816666666667	0	n/a	56450	KeyDown	41324	4	Index	5
94.2083333333333	0	n/a	56526	KeyDown	41324	1	Little	5
94.3866666666667	0	n/a	56633	KeyDown	41324	3	Middle	5
94.5066666666667	0	n/a	56705	KeyDown	41324	2	Ring	5
94.7100000000000	0	n/a	56827	KeyDown	41324	4	Index	5
94.8733333333333	0	n/a	56925	KeyDown	41324	4	Index	5
94.9750000000000	0	n/a	56986	KeyDown	41324	1	Little	5
95.1333333333333	0	n/a	57081	KeyDown	41324	3	Middle	5
95.2600000000000	0	n/a	57157	KeyDown	41324	2	Ring	5
95.4450000000000	0	n/a	57268	KeyDown	41324	4	Index	5
95.6183333333333	0	n/a	57372	KeyDown	41324	4	Index	5
95.7150000000000	0	n/a	57430	KeyDown	41324	1	Little	5
95.8750000000000	0	n/a	57526	KeyDown	41324	3	Middle	5
96.0100000000000	0	n/a	57607	KeyDown	41324	2	Ring	5
96.2166666666667	0	n/a	57731	KeyDown	41324	4	Index	5
96.3533333333333	0	n/a	57813	KeyDown	41324	4	Index	5
96.4850000000000	0	n/a	57892	KeyDown	41324	1	Little	5
96.6400000000000	0	n/a	57985	KeyDown	41324	3	Middle	5
96.7783333333333	0	n/a	58068	KeyDown	41324	2	Ring	5
96.9616666666667	0	n/a	58178	KeyDown	41324	4	Index	5
97.1216666666667	0	n/a	58274	KeyDown	41324	4	Index	5
97.2233333333333	0	n/a	58335	KeyDown	41324	1	Little	5
97.3750000000000	0	n/a	58426	KeyDown	41324	3	Middle	5
97.5033333333333	0	n/a	58503	KeyDown	41324	2	Ring	5
97.6866666666667	0	n/a	58613	KeyDown	41324	4	Index	5
97.8150000000000	0	n/a	58690	KeyDown	41324	4	Index	5
97.9250000000000	0	n/a	58756	KeyDown	41324	1	Little	5
98.1033333333333	0	n/a	58863	KeyDown	41324	3	Middle	5
98.2333333333333	0	n/a	58941	KeyDown	41324	2	Ring	5
98.4250000000000	0	n/a	59056	KeyDown	41324	4	Index	5
98.6700000000000	0	n/a	59203	KeyDown	41324	1	Little	5
98.9966666666667	0	n/a	59399	KeyDown	41324	4	Index	5
99.3416666666667	0	n/a	59606	KeyDown	41324	3	Middle	5
99.6833333333333	0	n/a	59811	KeyDown	41324	1	Little	5
100.1033333333333	0	n/a	60063	KeyDown	41324	4	Index	5
100.5133333333333	0	n/a	60309	KeyDown	41324	1	Little	5
100.7166666666667	0	n/a	60431	KeyDown	41324	3	Middle	5
100.8300000000000	0	n/a	60499	KeyDown	41324	2	Ring	5
101.0183333333333	0	n/a	60612	KeyDown	41324	4	Index	5
101.1550000000000	0	n/a	60694	KeyDown	41324	4	Index	5
101.2516666666667	0	n/a	60752	KeyDown	41324	1	Little	5
101.4016666666667	0	n/a	60842	KeyDown	41324	3	Middle	5
101.5633333333333	0	n/a	60939	KeyDown	41324	2	Ring	5
101.7850000000000	0	n/a	61072	KeyDown	41324	4	Index	5
101.9100000000000	0	n/a	61147	KeyDown	41324	4	Index	5
102.0216666666667	0	n/a	61214	KeyDown	41324	1	Little	5
102.2000000000000	0	n/a	61321	KeyDown	41324	3	Middle	5
102.3366666666667	0	n/a	61403	KeyDown	41324	2	Ring	5
102.5333333333333	0	n/a	61521	KeyDown	41324	4	Index	5
102.6433333333333	0	n/a	61587	KeyDown	41324	4	Index	5
102.6783333333333	0	n/a	61608	StopPractice	41324	n/a	n/a	5
102.6800000000000	0	n/a	61609	StartRest	XXXXX	n/a	n/a	5
112.7200000000000	0	n/a	67633	StopRest	XXXXX	n/a	n/a	5
112.7216666666667	0	UPPT001	67634	StartPractice	41324	n/a	n/a	6
112.9550000000000	0	n/a	67774	KeyDown	41324	4	Index	6
113.1250000000000	0	n/a	67876	KeyDown	41324	1	Little	6
113.3300000000000	0	n/a	67999	KeyDown	41324	3	Middle	6
113.4133333333333	0	n/a	68049	KeyDown	41324	2	Ring	6
113.6300000000000	0	n/a	68179	KeyDown	41324	4	Index	6
113.7600000000000	0	n/a	68257	KeyDown	41324	4	Index	6
113.8583333333333	0	n/a	68316	KeyDown	41324	1	Little	6
114.0050000000000	0	n/a	68404	KeyDown	41324	3	Middle	6
114.1350000000000	0	n/a	68482	KeyDown	41324	2	Ring	6
114.3233333333333	0	n/a	68595	KeyDown	41324	4	Index	6
114.4633333333333	0	n/a	68679	KeyDown	41324	4	Index	6
114.6050000000000	0	n/a	68764	KeyDown	41324	1	Little	6
114.7750000000000	0	n/a	68866	KeyDown	41324	3	Middle	6
114.8983333333333	0	n/a	68940	KeyDown	41324	2	Ring	6
115.0800000000000	0	n/a	69049	KeyDown	41324	4	Index	6
115.2083333333333	0	n/a	69126	KeyDown	41324	4	Index	6
115.3183333333333	0	n/a	69192	KeyDown	41324	1	Little	6
115.4750000000000	0	n/a	69286	KeyDown	41324	3	Middle	6
115.5883333333333	0	n/a	69354	KeyDown	41324	2	Ring	6
115.7766666666667	0	n/a	69467	KeyDown	41324	4	Index	6
115.9433333333333	0	n/a	69567	KeyDown	41324	4	Index	6
116.0900000000000	0	n/a	69655	KeyDown	41324	1	Little	6
116.2650000000000	0	n/a	69760	KeyDown	41324	3	Middle	6
116.3950000000000	0	n/a	69838	KeyDown	41324	2	Ring	6
116.5900000000000	0	n/a	69955	KeyDown	41324	4	Index	6
116.7783333333333	0	n/a	70068	KeyDown	41324	4	Index	6
116.8850000000000	0	n/a	70132	KeyDown	41324	1	Little	6
117.0683333333333	0	n/a	70242	KeyDown	41324	3	Middle	6
117.1750000000000	0	n/a	70306	KeyDown	41324	2	Ring	6
117.3433333333333	0	n/a	70407	KeyDown	41324	4	Index	6
117.5016666666667	0	n/a	70502	KeyDown	41324	4	Index	6
117.7016666666667	0	n/a	70622	KeyDown	41324	1	Little	6
117.8500000000000	0	n/a	70711	KeyDown	41324	3	Middle	6
117.9800000000000	0	n/a	70789	KeyDown	41324	2	Ring	6
118.1383333333333	0	n/a	70884	KeyDown	41324	4	Index	6
118.3050000000000	0	n/a	70984	KeyDown	41324	4	Index	6
118.4383333333333	0	n/a	71064	KeyDown	41324	1	Little	6
118.5916666666667	0	n/a	71156	KeyDown	41324	3	Middle	6
118.7283333333333	0	n/a	71238	KeyDown	41324	2	Ring	6
118.9300000000000	0	n/a	71359	KeyDown	41324	4	Index	6
119.0683333333333	0	n/a	71442	KeyDown	41324	4	Index	6
119.1900000000000	0	n/a	71515	KeyDown	41324	1	Little	6
119.3450000000000	0	n/a	71608	KeyDown	41324	3	Middle	6
119.5050000000000	0	n/a	71704	KeyDown	41324	2	Ring	6
120.0066666666667	0	n/a	72005	KeyDown	41324	4	Index	6
120.1900000000000	0	n/a	72115	KeyDown	41324	4	Index	6
120.2850000000000	0	n/a	72172	KeyDown	41324	1	Little	6
120.4883333333333	0	n/a	72294	KeyDown	41324	3	Middle	6
120.5966666666667	0	n/a	72359	KeyDown	41324	2	Ring	6
120.7800000000000	0	n/a	72469	KeyDown	41324	4	Index	6
120.9350000000000	0	n/a	72562	KeyDown	41324	4	Index	6
121.0466666666667	0	n/a	72629	KeyDown	41324	1	Little	6
121.1850000000000	0	n/a	72712	KeyDown	41324	3	Middle	6
121.3266666666667	0	n/a	72797	KeyDown	41324	2	Ring	6
121.5650000000000	0	n/a	72940	KeyDown	41324	4	Index	6
121.7250000000000	0	n/a	73036	KeyDown	41324	4	Index	6
121.8033333333333	0	n/a	73083	KeyDown	41324	1	Little	6
121.9600000000000	0	n/a	73177	KeyDown	41324	3	Middle	6
122.1016666666667	0	n/a	73262	KeyDown	41324	2	Ring	6
122.3116666666667	0	n/a	73388	KeyDown	41324	4	Index	6
122.4650000000000	0	n/a	73480	KeyDown	41324	4	Index	6
122.5283333333333	0	n/a	73518	KeyDown	41324	1	Little	6
122.6733333333333	0	n/a	73605	KeyDown	41324	3	Middle	6
122.7683333333333	0	n/a	73662	StopPractice	41324	n/a	n/a	6
122.7700000000000	0	n/a	73663	StartRest	XXXXX	n/a	n/a	6
132.8116666666667	0	n/a	79688	StopRest	XXXXX	n/a	n/a	6
132.8133333333333	0	UPPT001	79689	StartPractice	41324	n/a	n/a	7
133.1866666666667	0	n/a	79913	KeyDown	41324	4	Index	7
133.3766666666667	0	n/a	80027	KeyDown	41324	1	Little	7
133.5966666666667	0	n/a	80159	KeyDown	41324	3	Middle	7
133.7300000000000	0	n/a	80239	KeyDown	41324	2	Ring	7
133.9266666666667	0	n/a	80357	KeyDown	41324	4	Index	7
134.0966666666667	0	n/a	80459	KeyDown	41324	4	Index	7
134.2050000000000	0	n/a	80524	KeyDown	41324	1	Little	7
134.3500000000000	0	n/a	80611	KeyDown	41324	3	Middle	7
134.4733333333333	0	n/a	80685	KeyDown	41324	2	Ring	7
134.6683333333334	0	n/a	80802	KeyDown	41324	4	Index	7
134.8050000000000	0	n/a	80884	KeyDown	41324	4	Index	7
134.9116666666667	0	n/a	80948	KeyDown	41324	1	Little	7
135.0600000000000	0	n/a	81037	KeyDown	41324	3	Middle	7
135.1816666666667	0	n/a	81110	KeyDown	41324	2	Ring	7
135.3716666666667	0	n/a	81224	KeyDown	41324	4	Index	7
135.7050000000000	0	n/a	81424	KeyDown	41324	4	Index	7
135.8700000000000	0	n/a	81523	KeyDown	41324	1	Little	7
136.0350000000000	0	n/a	81622	KeyDown	41324	3	Middle	7
136.1400000000000	0	n/a	81685	KeyDown	41324	2	Ring	7
136.3216666666667	0	n/a	81794	KeyDown	41324	4	Index	7
136.4766666666667	0	n/a	81887	KeyDown	41324	4	Index	7
136.5816666666667	0	n/a	81950	KeyDown	41324	1	Little	7
136.7200000000000	0	n/a	82033	KeyDown	41324	3	Middle	7
136.8450000000000	0	n/a	82108	KeyDown	41324	2	Ring	7
137.0250000000000	0	n/a	82216	KeyDown	41324	4	Index	7
137.1816666666667	0	n/a	82310	KeyDown	41324	4	Index	7
137.3183333333333	0	n/a	82392	KeyDown	41324	1	Little	7
137.4533333333333	0	n/a	82473	KeyDown	41324	3	Middle	7
137.5500000000000	0	n/a	82531	KeyDown	41324	2	Ring	7
137.7800000000000	0	n/a	82669	KeyDown	41324	4	Index	7
137.8633333333333	0	n/a	82719	KeyDown	41324	4	Index	7
138.1516666666667	0	n/a	82892	KeyDown	41324	1	Little	7
138.2900000000000	0	n/a	82975	KeyDown	41324	3	Middle	7
138.4833333333333	0	n/a	83091	KeyDown	41324	2	Ring	7
138.7066666666667	0	n/a	83225	KeyDown	41324	4	Index	7
138.8700000000000	0	n/a	83323	KeyDown	41324	4	Index	7
138.9550000000000	0	n/a	83374	KeyDown	41324	1	Little	7
139.0766666666667	0	n/a	83447	KeyDown	41324	3	Middle	7
139.1900000000000	0	n/a	83515	KeyDown	41324	2	Ring	7
139.3566666666667	0	n/a	83615	KeyDown	41324	4	Index	7
139.6450000000000	0	n/a	83788	KeyDown	41324	4	Index	7
139.7800000000000	0	n/a	83869	KeyDown	41324	1	Little	7
139.9350000000000	0	n/a	83962	KeyDown	41324	3	Middle	7
140.0550000000000	0	n/a	84034	KeyDown	41324	2	Ring	7
140.1833333333333	0	n/a	84111	KeyDown	41324	4	Index	7
140.2966666666667	0	n/a	84179	KeyDown	41324	4	Index	7
140.6283333333333	0	n/a	84378	KeyDown	41324	1	Little	7
140.8283333333333	0	n/a	84498	KeyDown	41324	3	Middle	7
140.9550000000000	0	n/a	84574	KeyDown	41324	2	Ring	7
141.1766666666667	0	n/a	84707	KeyDown	41324	4	Index	7
141.3216666666667	0	n/a	84794	KeyDown	41324	4	Index	7
141.4066666666667	0	n/a	84845	KeyDown	41324	1	Little	7
141.5466666666667	0	n/a	84929	KeyDown	41324	3	Middle	7
141.6183333333333	0	n/a	84972	KeyDown	41324	2	Ring	7
141.8950000000000	0	n/a	85138	KeyDown	41324	4	Index	7
142.0716666666667	0	n/a	85244	KeyDown	41324	4	Index	7
142.1400000000000	0	n/a	85285	KeyDown	41324	1	Little	7
142.2800000000000	0	n/a	85369	KeyDown	41324	3	Middle	7
142.4050000000000	0	n/a	85444	KeyDown	41324	2	Ring	7
142.6333333333334	0	n/a	85581	KeyDown	41324	4	Index	7
142.7800000000000	0	n/a	85669	KeyDown	41324	4	Index	7
142.8600000000000	0	n/a	85717	StopPractice	41324	n/a	n/a	7
142.8616666666667	0	n/a	85718	StartRest	XXXXX	n/a	n/a	7
152.9033333333333	0	n/a	91743	StopRest	XXXXX	n/a	n/a	7
152.9050000000000	0	UPPT001	91744	StartPractice	41324	n/a	n/a	8
153.1350000000000	0	n/a	91882	KeyDown	41324	4	Index	8
153.3366666666667	0	n/a	92003	KeyDown	41324	1	Little	8
153.4166666666667	0	n/a	92051	KeyDown	41324	2	Ring	8
153.6316666666667	0	n/a	92180	KeyDown	41324	3	Middle	8
153.7900000000000	0	n/a	92275	KeyDown	41324	2	Ring	8
153.9933333333333	0	n/a	92397	KeyDown	41324	4	Index	8
154.1466666666667	0	n/a	92489	KeyDown	41324	4	Index	8
154.2733333333333	0	n/a	92565	KeyDown	41324	1	Little	8
154.4283333333333	0	n/a	92658	KeyDown	41324	3	Middle	8
154.5350000000000	0	n/a	92722	KeyDown	41324	2	Ring	8
154.7833333333333	0	n/a	92871	KeyDown	41324	4	Index	8
154.9483333333334	0	n/a	92970	KeyDown	41324	4	Index	8
155.0766666666667	0	n/a	93047	KeyDown	41324	1	Little	8
155.2166666666667	0	n/a	93131	KeyDown	41324	3	Middle	8
155.3216666666667	0	n/a	93194	KeyDown	41324	2	Ring	8
155.5416666666667	0	n/a	93326	KeyDown	41324	4	Index	8
155.6900000000000	0	n/a	93415	KeyDown	41324	4	Index	8
155.8233333333334	0	n/a	93495	KeyDown	41324	1	Little	8
155.9783333333334	0	n/a	93588	KeyDown	41324	3	Middle	8
156.1033333333334	0	n/a	93663	KeyDown	41324	2	Ring	8
156.3116666666667	0	n/a	93788	KeyDown	41324	4	Index	8
156.4600000000000	0	n/a	93877	KeyDown	41324	4	Index	8
156.5833333333333	0	n/a	93951	KeyDown	41324	1	Little	8
156.7483333333333	0	n/a	94050	KeyDown	41324	3	Middle	8
156.8533333333334	0	n/a	94113	KeyDown	41324	2	Ring	8
157.0483333333333	0	n/a	94230	KeyDown	41324	4	Index	8
157.1866666666667	0	n/a	94313	KeyDown	41324	4	Index	8
157.3283333333333	0	n/a	94398	KeyDown	41324	1	Little	8
157.4833333333333	0	n/a	94491	KeyDown	41324	3	Middle	8
157.6033333333334	0	n/a	94563	KeyDown	41324	2	Ring	8
157.8750000000000	0	n/a	94726	KeyDown	41324	4	Index	8
158.0433333333334	0	n/a	94827	KeyDown	41324	4	Index	8
158.1433333333333	0	n/a	94887	KeyDown	41324	1	Little	8
158.2983333333333	0	n/a	94980	KeyDown	41324	3	Middle	8
158.4083333333333	0	n/a	95046	KeyDown	41324	2	Ring	8
158.5833333333333	0	n/a	95151	KeyDown	41324	4	Index	8
158.7333333333333	0	n/a	95241	KeyDown	41324	4	Index	8
158.8400000000000	0	n/a	95305	KeyDown	41324	1	Little	8
158.9700000000000	0	n/a	95383	KeyDown	41324	3	Middle	8
159.0783333333333	0	n/a	95448	KeyDown	41324	2	Ring	8
159.2916666666667	0	n/a	95576	KeyDown	41324	4	Index	8
159.4366666666667	0	n/a	95663	KeyDown	41324	4	Index	8
159.5383333333334	0	n/a	95724	KeyDown	41324	1	Little	8
159.6583333333333	0	n/a	95796	KeyDown	41324	3	Middle	8
159.7866666666667	0	n/a	95873	KeyDown	41324	2	Ring	8
159.9950000000000	0	n/a	95998	KeyDown	41324	4	Index	8
160.1233333333333	0	n/a	96075	KeyDown	41324	4	Index	8
160.2250000000000	0	n/a	96136	KeyDown	41324	1	Little	8
160.3766666666667	0	n/a	96227	KeyDown	41324	3	Middle	8
160.4233333333333	0	n/a	96255	KeyDown	41324	2	Ring	8
160.6866666666667	0	n/a	96413	KeyDown	41324	4	Index	8
160.8383333333333	0	n/a	96504	KeyDown	41324	4	Index	8
160.9283333333333	0	n/a	96558	KeyDown	41324	1	Little	8
161.0583333333333	0	n/a	96636	KeyDown	41324	3	Middle	8
161.1566666666667	0	n/a	96695	KeyDown	41324	2	Ring	8
161.3666666666667	0	n/a	96821	KeyDown	41324	4	Index	8
161.4850000000000	0	n/a	96892	KeyDown	41324	4	Index	8
161.5766666666667	0	n/a	96947	KeyDown	41324	1	Little	8
161.6866666666667	0	n/a	97013	KeyDown	41324	3	Middle	8
161.8283333333333	0	n/a	97098	KeyDown	41324	2	Ring	8
162.0516666666667	0	n/a	97232	KeyDown	41324	4	Index	8
162.2016666666667	0	n/a	97322	KeyDown	41324	4	Index	8
162.3166666666667	0	n/a	97391	KeyDown	41324	1	Little	8
162.4483333333334	0	n/a	97470	KeyDown	41324	3	Middle	8
162.5850000000000	0	n/a	97552	KeyDown	41324	2	Ring	8
162.8016666666667	0	n/a	97682	KeyDown	41324	4	Index	8
162.9516666666667	0	n/a	97772	StopPractice	41324	n/a	n/a	8
162.9533333333333	0	n/a	97773	StartRest	XXXXX	n/a	n/a	8
172.9950000000000	0	n/a	103798	StopRest	XXXXX	n/a	n/a	8
172.9966666666667	0	UPPT001	103799	StartPractice	41324	n/a	n/a	9
173.3433333333333	0	n/a	104007	KeyDown	41324	4	Index	9
173.4550000000000	0	n/a	104074	KeyDown	41324	3	Middle	9
173.9516666666667	0	n/a	104372	KeyDown	41324	4	Index	9
174.1300000000000	0	n/a	104479	KeyDown	41324	1	Little	9
174.2816666666667	0	n/a	104570	KeyDown	41324	3	Middle	9
174.3633333333333	0	n/a	104619	KeyDown	41324	2	Ring	9
174.6883333333333	0	n/a	104814	KeyDown	41324	4	Index	9
174.8583333333333	0	n/a	104916	KeyDown	41324	4	Index	9
175.0200000000000	0	n/a	105013	KeyDown	41324	1	Little	9
175.1533333333333	0	n/a	105093	KeyDown	41324	3	Middle	9
175.2583333333334	0	n/a	105156	KeyDown	41324	2	Ring	9
175.4533333333333	0	n/a	105273	KeyDown	41324	4	Index	9
175.5983333333334	0	n/a	105360	KeyDown	41324	4	Index	9
175.7200000000000	0	n/a	105433	KeyDown	41324	1	Little	9
175.8833333333334	0	n/a	105531	KeyDown	41324	3	Middle	9
176.0216666666667	0	n/a	105614	KeyDown	41324	2	Ring	9
176.2450000000000	0	n/a	105748	KeyDown	41324	4	Index	9
176.3950000000000	0	n/a	105838	KeyDown	41324	4	Index	9
176.5083333333334	0	n/a	105906	KeyDown	41324	1	Little	9
176.6450000000000	0	n/a	105988	KeyDown	41324	3	Middle	9
176.6983333333334	0	n/a	106020	KeyDown	41324	2	Ring	9
176.9316666666667	0	n/a	106160	KeyDown	41324	4	Index	9
177.0716666666667	0	n/a	106244	KeyDown	41324	4	Index	9
177.1250000000000	0	n/a	106276	KeyDown	41324	1	Little	9
177.2800000000000	0	n/a	106369	KeyDown	41324	3	Middle	9
177.2850000000000	0	n/a	106372	KeyDown	41324	2	Ring	9
177.4400000000000	0	n/a	106465	KeyDown	41324	2	Ring	9
177.6166666666667	0	n/a	106571	KeyDown	41324	4	Index	9
177.7583333333334	0	n/a	106656	KeyDown	41324	4	Index	9
177.8733333333333	0	n/a	106725	KeyDown	41324	1	Little	9
178.1100000000000	0	n/a	106867	KeyDown	41324	3	Middle	9
178.2033333333333	0	n/a	106923	KeyDown	41324	2	Ring	9
178.4100000000000	0	n/a	107047	KeyDown	41324	4	Index	9
178.5716666666667	0	n/a	107144	KeyDown	41324	4	Index	9
178.6333333333334	0	n/a	107181	KeyDown	41324	1	Little	9
178.7833333333333	0	n/a	107271	KeyDown	41324	3	Middle	9
178.8350000000000	0	n/a	107302	KeyDown	41324	2	Ring	9
179.0750000000000	0	n/a	107446	KeyDown	41324	4	Index	9
179.2100000000000	0	n/a	107527	KeyDown	41324	4	Index	9
179.2983333333333	0	n/a	107580	KeyDown	41324	1	Little	9
179.4650000000000	0	n/a	107680	KeyDown	41324	3	Middle	9
179.4683333333333	0	n/a	107682	KeyDown	41324	2	Ring	9
179.8633333333333	0	n/a	107919	KeyDown	41324	4	Index	9
180.0233333333333	0	n/a	108015	KeyDown	41324	4	Index	9
180.1716666666667	0	n/a	108104	KeyDown	41324	1	Little	9
180.3083333333333	0	n/a	108186	KeyDown	41324	3	Middle	9
180.4200000000000	0	n/a	108253	KeyDown	41324	2	Ring	9
180.6283333333334	0	n/a	108378	KeyDown	41324	4	Index	9
180.7983333333333	0	n/a	108480	KeyDown	41324	4	Index	9
180.8633333333333	0	n/a	108519	KeyDown	41324	1	Little	9
180.9933333333333	0	n/a	108597	KeyDown	41324	3	Middle	9
181.1083333333333	0	n/a	108666	KeyDown	41324	2	Ring	9
181.3583333333333	0	n/a	108816	KeyDown	41324	4	Index	9
181.4816666666667	0	n/a	108890	KeyDown	41324	4	Index	9
181.5866666666667	0	n/a	108953	KeyDown	41324	1	Little	9
181.7100000000000	0	n/a	109027	KeyDown	41324	3	Middle	9
181.7900000000000	0	n/a	109075	KeyDown	41324	2	Ring	9
182.0433333333334	0	n/a	109227	KeyDown	41324	4	Index	9
182.1733333333333	0	n/a	109305	KeyDown	41324	4	Index	9
182.2850000000000	0	n/a	109372	KeyDown	41324	1	Little	9
182.4333333333333	0	n/a	109461	KeyDown	41324	3	Middle	9
182.4850000000000	0	n/a	109492	KeyDown	41324	2	Ring	9
182.7416666666667	0	n/a	109646	KeyDown	41324	4	Index	9
182.8783333333334	0	n/a	109728	KeyDown	41324	4	Index	9
182.9533333333333	0	n/a	109773	KeyDown	41324	1	Little	9
183.0433333333334	0	n/a	109827	StopPractice	41324	n/a	n/a	9
183.0450000000000	0	n/a	109828	StartRest	XXXXX	n/a	n/a	9
193.0883333333333	0	n/a	115854	StopRest	XXXXX	n/a	n/a	9
