onset	duration	channel	onset_sample_idx	event_type	target_sequence	keypress_id	finger_label	trial_number
3.5916666666667	0	UPPT001	2156	StartPractice	21342	n/a	n/a	1
6.0633333333333	0	n/a	3639	KeyDown	21342	2	Ring	1
6.7350000000000	0	n/a	4042	KeyDown	21342	1	Little	1
7.7100000000000	0	n/a	4627	KeyDown	21342	3	Middle	1
8.3683333333333	0	n/a	5022	KeyDown	21342	4	Index	1
9.1733333333333	0	n/a	5505	KeyDown	21342	2	Ring	1
9.7283333333333	0	n/a	5838	KeyDown	21342	2	Ring	1
9.9533333333333	0	n/a	5973	KeyDown	21342	1	Little	1
10.6766666666667	0	n/a	6407	KeyDown	21342	2	Ring	1
10.9633333333333	0	n/a	6579	KeyDown	21342	3	Middle	1
11.4650000000000	0	n/a	6880	KeyDown	21342	4	Index	1
12.1833333333333	0	n/a	7311	KeyDown	21342	2	Ring	1
12.4650000000000	0	n/a	7480	KeyDown	21342	2	Ring	1
12.6816666666667	0	n/a	7610	KeyDown	21342	1	Little	1
13.3066666666667	0	n/a	7985	KeyDown	21342	3	Middle	1
13.6283333333333	0	n/a	8178	StopPractice	21342	n/a	n/a	1
13.6300000000000	0	n/a	8179	StartRest	XXXXX	n/a	n/a	1
23.6633333333333	0	n/a	14199	StopRest	XXXXX	n/a	n/a	1
23.6650000000000	0	UPPT001	14200	StartPractice	42431	n/a	n/a	2
24.5750000000000	0	n/a	14746	KeyDown	42431	4	Index	2
25.2350000000000	0	n/a	15142	KeyDown	42431	2	Ring	2
25.5583333333333	0	n/a	15336	KeyDown	42431	4	Index	2
26.4083333333333	0	n/a	15846	KeyDown	42431	3	Middle	2
26.5866666666667	0	n/a	15953	KeyDown	42431	1	Little	2
26.8033333333333	0	n/a	16083	KeyDown	42431	4	Index	2
27.0883333333333	0	n/a	16254	KeyDown	42431	2	Ring	2
27.4166666666667	0	n/a	16451	KeyDown	42431	4	Index	2
27.7800000000000	0	n/a	16669	KeyDown	42431	3	Middle	2
28.0666666666667	0	n/a	16841	KeyDown	42431	1	Little	2
28.2666666666667	0	n/a	16961	KeyDown	42431	4	Index	2
28.5950000000000	0	n/a	17158	KeyDown	42431	2	Ring	2
28.8466666666667	0	n/a	17309	KeyDown	42431	3	Middle	2
29.4100000000000	0	n/a	17647	KeyDown	42431	4	Index	2
29.6933333333333	0	n/a	17817	KeyDown	42431	3	Middle	2
29.9583333333333	0	n/a	17976	KeyDown	42431	1	Little	2
30.1766666666667	0	n/a	18107	KeyDown	42431	4	Index	2
30.4533333333333	0	n/a	18273	KeyDown	42431	2	Ring	2
31.0150000000000	0	n/a	18610	KeyDown	42431	4	Index	2
31.2783333333333	0	n/a	18768	KeyDown	42431	3	Middle	2
31.5266666666667	0	n/a	18917	KeyDown	42431	1	Little	2
31.7550000000000	0	n/a	19054	KeyDown	42431	4	Index	2
32.0650000000000	0	n/a	19240	KeyDown	42431	2	Ring	2
32.3466666666667	0	n/a	19409	KeyDown	42431	4	Index	2
32.6033333333333	0	n/a	19563	KeyDown	42431	3	Middle	2
32.8683333333333	0	n/a	19722	KeyDown	42431	1	Little	2
33.0400000000000	0	n/a	19825	KeyDown	42431	4	Index	2
33.4066666666667	0	n/a	20045	KeyDown	42431	2	Ring	2
33.6283333333333	0	n/a	20178	KeyDown	42431	4	Index	2
33.7016666666667	0	n/a	20222	StopPractice	42431	n/a	n/a	2
33.7033333333333	0	n/a	20223	StartRest	XXXXX	n/a	n/a	2
43.7383333333333	0	n/a	26244	StopRest	XXXXX	n/a	n/a	2
43.7400000000000	0	UPPT001	26245	StartPractice	34231	n/a	n/a	3
45.2916666666667	0	n/a	27176	KeyDown	34231	3	Middle	3
45.6216666666667	0	n/a	27374	KeyDown	34231	4	Index	3
46.0783333333333	0	n/a	27648	KeyDown	34231	2	Ring	3
46.5350000000000	0	n/a	27922	KeyDown	34231	3	Middle	3
46.7800000000000	0	n/a	28069	KeyDown	34231	1	Little	3
47.2850000000000	0	n/a	28372	KeyDown	34231	3	Middle	3
47.9183333333333	0	n/a	28752	KeyDown	34231	4	Index	3
48.4816666666667	0	n/a	29090	KeyDown	34231	2	Ring	3
48.7966666666667	0	n/a	29279	KeyDown	34231	3	Middle	3
49.0116666666667	0	n/a	29408	KeyDown	34231	1	Little	3
49.3383333333333	0	n/a	29604	KeyDown	34231	3	Middle	3
49.7500000000000	0	n/a	29851	KeyDown	34231	4	Index	3
50.1483333333333	0	n/a	30090	KeyDown	34231	3	Middle	3
50.4750000000000	0	n/a	30286	KeyDown	34231	2	Ring	3
50.7950000000000	0	n/a	30478	KeyDown	34231	1	Little	3
51.1666666666667	0	n/a	30701	KeyDown	34231	3	Middle	3
51.4383333333333	0	n/a	30864	KeyDown	34231	4	Index	3
51.8933333333333	0	n/a	31137	KeyDown	34231	3	Middle	3
52.4350000000000	0	n/a	31462	KeyDown	34231	2	Ring	3
52.5983333333333	0	n/a	31560	KeyDown	34231	3	Middle	3
52.8733333333333	0	n/a	31725	KeyDown	34231	1	Little	3
53.4633333333333	0	n/a	32079	KeyDown	34231	3	Middle	3
53.7766666666667	0	n/a	32267	StopPractice	34231	n/a	n/a	3
53.7783333333333	0	n/a	32268	StartRest	XXXXX	n/a	n/a	3
63.8116666666667	0	n/a	38288	StopRest	XXXXX	n/a	n/a	3
63.8133333333333	0	UPPT001	38289	StartPractice	14342	n/a	n/a	4
64.7266666666667	0	n/a	38837	KeyDown	14342	1	Little	4
65.2416666666667	0	n/a	39146	KeyDown	14342	4	Index	4
66.3283333333333	0	n/a	39798	KeyDown	14342	3	Middle	4
66.7366666666667	0	n/a	40043	KeyDown	14342	4	Index	4
67.1066666666667	0	n/a	40265	KeyDown	14342	2	Ring	4
67.6233333333333	0	n/a	40575	KeyDown	14342	1	Little	4
67.9000000000000	0	n/a	40741	KeyDown	14342	4	Index	4
68.4516666666667	0	n/a	41072	KeyDown	14342	3	Middle	4
68.6883333333333	0	n/a	41214	KeyDown	14342	4	Index	4
68.9550000000000	0	n/a	41374	KeyDown	14342	1	Little	4
69.5516666666667	0	n/a	41732	KeyDown	14342	1	Little	4
69.9383333333333	0	n/a	41964	KeyDown	14342	4	Index	4
70.4600000000000	0	n/a	42277	KeyDown	14342	3	Middle	4
70.7100000000000	0	n/a	42427	KeyDown	14342	4	Index	4
71.0216666666667	0	n/a	42614	KeyDown	14342	2	Ring	4
71.3533333333333	0	n/a	42813	KeyDown	14342	4	Index	4
71.5316666666667	0	n/a	42920	KeyDown	14342	1	Little	4
71.9733333333333	0	n/a	43185	KeyDown	14342	3	Middle	4
72.5816666666667	0	n/a	43550	KeyDown	14342	4	Index	4
72.8983333333333	0	n/a	43740	KeyDown	14342	2	Ring	4
73.1666666666667	0	n/a	43901	KeyDown	14342	4	Index	4
73.3500000000000	0	n/a	44011	KeyDown	14342	1	Little	4
73.8500000000000	0	n/a	44311	StopPractice	14342	n/a	n/a	4
73.8516666666667	0	n/a	44312	StartRest	XXXXX	n/a	n/a	4
83.8866666666667	0	n/a	50333	StopRest	XXXXX	n/a	n/a	4
83.8883333333333	0	UPPT001	50334	StartPractice	32431	n/a	n/a	5
84.9266666666667	0	n/a	50957	KeyDown	32431	3	Middle	5
85.2716666666667	0	n/a	51164	KeyDown	32431	2	Ring	5
85.6700000000000	0	n/a	51403	KeyDown	32431	4	Index	5
86.6750000000000	0	n/a	52006	KeyDown	32431	3	Middle	5
86.9183333333333	0	n/a	52152	KeyDown	32431	1	Little	5
87.4233333333333	0	n/a	52455	KeyDown	32431	3	Middle	5
88.3733333333333	0	n/a	53025	KeyDown	32431	2	Ring	5
88.7150000000000	0	n/a	53230	KeyDown	32431	4	Index	5
89.1966666666667	0	n/a	53519	KeyDown	32431	3	Middle	5
89.4466666666667	0	n/a	53669	KeyDown	32431	1	Little	5
89.7650000000000	0	n/a	53860	KeyDown	32431	3	Middle	5
90.0083333333333	0	n/a	54006	KeyDown	32431	2	Ring	5
90.4066666666667	0	n/a	54245	KeyDown	32431	3	Middle	5
91.0333333333333	0	n/a	54621	KeyDown	32431	4	Index	5
91.2683333333333	0	n/a	54762	KeyDown	32431	1	Little	5
91.7166666666667	0	n/a	55031	KeyDown	32431	3	Middle	5
92.1850000000000	0	n/a	55312	KeyDown	32431	2	Ring	5
92.5916666666667	0	n/a	55556	KeyDown	32431	4	Index	5
93.1900000000000	0	n/a	55915	KeyDown	32431	3	Middle	5
93.4100000000000	0	n/a	56047	KeyDown	32431	1	Little	5
93.7883333333333	0	n/a	56274	KeyDown	32431	3	Middle	5
93.9250000000000	0	n/a	56356	StopPractice	32431	n/a	n/a	5
93.9266666666667	0	n/a	56357	StartRest	XXXXX	n/a	n/a	5
103.9633333333333	0	n/a	62379	StopRest	XXXXX	n/a	n/a	5
103.9650000000000	0	UPPT001	62380	StartPractice	14231	n/a	n/a	6
105.2550000000000	0	n/a	63154	KeyDown	14231	1	Little	6
105.5016666666667	0	n/a	63302	KeyDown	14231	4	Index	6
106.3650000000000	0	n/a	63820	KeyDown	14231	2	Ring	6
106.6200000000000	0	n/a	63973	KeyDown	14231	3	Middle	6
107.0666666666667	0	n/a	64241	KeyDown	14231	1	Little	6
107.4516666666667	0	n/a	64472	KeyDown	14231	1	Little	6
107.7033333333333	0	n/a	64623	KeyDown	14231	4	Index	6
108.2216666666667	0	n/a	64934	KeyDown	14231	2	Ring	6
108.4366666666667	0	n/a	65063	KeyDown	14231	3	Middle	6
108.6983333333333	0	n/a	65220	KeyDown	14231	1	Little	6
109.3816666666667	0	n/a	65630	KeyDown	14231	1	Little	6
109.6933333333333	0	n/a	65817	KeyDown	14231	4	Index	6
110.1416666666667	0	n/a	66086	KeyDown	14231	2	Ring	6
110.3883333333333	0	n/a	66234	KeyDown	14231	3	Middle	6
110.5833333333333	0	n/a	66351	KeyDown	14231	1	Little	6
110.8533333333333	0	n/a	66513	KeyDown	14231	1	Little	6
111.2783333333333	0	n/a	66768	KeyDown	14231	4	Index	6
111.6700000000000	0	n/a	67003	KeyDown	14231	2	Ring	6
111.8766666666667	0	n/a	67127	KeyDown	14231	3	Middle	6
112.1166666666667	0	n/a	67271	KeyDown	14231	1	Little	6
112.4266666666667	0	n/a	67457	KeyDown	14231	1	Little	6
113.0516666666667	0	n/a	67832	KeyDown	14231	4	Index	6
113.3733333333333	0	n/a	68025	KeyDown	14231	2	Ring	6
113.5583333333333	0	n/a	68136	KeyDown	14231	3	Middle	6
113.7133333333333	0	n/a	68229	KeyDown	14231	1	Little	6
114.0016666666667	0	n/a	68402	StopPractice	14231	n/a	n/a	6
114.0033333333333	0	n/a	68403	StartRest	XXXXX	n/a	n/a	6
124.0366666666667	0	n/a	74423	StopRest	XXXXX	n/a	n/a	6
124.0383333333333	0	UPPT001	74424	StartPractice	32421	n/a	n/a	7
125.0766666666667	0	n/a	75047	KeyDown	32421	3	Middle	7
125.2516666666667	0	n/a	75152	KeyDown	32421	2	Ring	7
125.5100000000000	0	n/a	75307	KeyDown	32421	4	Index	7
126.7316666666667	0	n/a	76040	KeyDown	32421	2	Ring	7
126.9616666666667	0	n/a	76178	KeyDown	32421	1	Little	7
127.5766666666667	0	n/a	76547	KeyDown	32421	3	Middle	7
127.8050000000000	0	n/a	76684	KeyDown	32421	4	Index	7
128.4516666666667	0	n/a	77072	KeyDown	32421	3	Middle	7
128.7966666666667	0	n/a	77279	KeyDown	32421	2	Ring	7
129.0233333333333	0	n/a	77415	KeyDown	32421	4	Index	7
129.4016666666667	0	n/a	77642	KeyDown	32421	2	Ring	7
129.8116666666667	0	n/a	77888	KeyDown	32421	1	Little	7
130.5666666666667	0	n/a	78341	KeyDown	32421	3	Middle	7
130.9000000000000	0	n/a	78541	KeyDown	32421	2	Ring	7
131.2666666666667	0	n/a	78761	KeyDown	32421	3	Middle	7
131.7050000000000	0	n/a	79024	KeyDown	32421	4	Index	7
132.0766666666667	0	n/a	79247	KeyDown	32421	3	Middle	7
132.3300000000000	0	n/a	79399	KeyDown	32421	1	Little	7
132.9300000000000	0	n/a	79759	KeyDown	32421	3	Middle	7
133.2250000000000	0	n/a	79936	KeyDown	32421	2	Ring	7
134.0200000000000	0	n/a	80413	KeyDown	32421	4	Index	7
134.0750000000000	0	n/a	80446	StopPractice	32421	n/a	n/a	7
134.0766666666667	0	n/a	80447	StartRest	XXXXX	n/a	n/a	7
144.1116666666667	0	n/a	86468	StopRest	XXXXX	n/a	n/a	7
144.1133333333333	0	UPPT001	86469	StartPractice	23142	n/a	n/a	8
145.5233333333333	0	n/a	87315	KeyDown	23142	2	Ring	8
145.9300000000000	0	n/a	87559	KeyDown	23142	3	Middle	8
146.5650000000000	0	n/a	87940	KeyDown	23142	1	Little	8
146.9366666666667	0	n/a	88163	KeyDown	23142	4	Index	8
147.3666666666667	0	n/a	88421	KeyDown	23142	2	Ring	8
147.6116666666667	0	n/a	88568	KeyDown	23142	2	Ring	8
147.9333333333333	0	n/a	88761	KeyDown	23142	3	Middle	8
148.2616666666667	0	n/a	88958	KeyDown	23142	1	Little	8
148.5700000000000	0	n/a	89143	KeyDown	23142	4	Index	8
148.9166666666667	0	n/a	89351	KeyDown	23142	2	Ring	8
149.2450000000000	0	n/a	89548	KeyDown	23142	2	Ring	8
149.4850000000000	0	n/a	89692	KeyDown	23142	3	Middle	8
150.0200000000000	0	n/a	90013	KeyDown	23142	1	Little	8
150.6416666666667	0	n/a	90386	KeyDown	23142	4	Index	8
151.1450000000000	0	n/a	90688	KeyDown	23142	2	Ring	8
151.4950000000000	0	n/a	90898	KeyDown	23142	2	Ring	8
151.7633333333333	0	n/a	91059	KeyDown	23142	3	Middle	8
152.0850000000000	0	n/a	91252	KeyDown	23142	1	Little	8
152.5683333333334	0	n/a	91542	KeyDown	23142	4	Index	8
152.9500000000000	0	n/a	91771	KeyDown	23142	2	Ring	8
153.2566666666667	0	n/a	91955	KeyDown	23142	2	Ring	8
153.4950000000000	0	n/a	92098	KeyDown	23142	3	Middle	8
153.7033333333333	0	n/a	92223	KeyDown	23142	1	Little	8
153.9433333333334	0	n/a	92367	KeyDown	23142	4	Index	8
154.1500000000000	0	n/a	92491	StopPractice	23142	n/a	n/a	8
154.1516666666667	0	n/a	92492	StartRest	XXXXX	n/a	n/a	8
164.1883333333333	0	n/a	98514	StopRest	XXXXX	n/a	n/a	8
164.1900000000000	0	UPPT001	98515	StartPractice	42314	n/a	n/a	9
165.0033333333333	0	n/a	99003	KeyDown	42314	4	Index	9
165.4650000000000	0	n/a	99280	KeyDown	42314	2	Ring	9
165.9883333333333	0	n/a	99594	KeyDown	42314	3	Middle	9
166.3250000000000	0	n/a	99796	KeyDown	42314	1	Little	9
166.5183333333333	0	n/a	99912	KeyDown	42314	4	Index	9
166.7183333333333	0	n/a	100032	KeyDown	42314	4	Index	9
167.1966666666667	0	n/a	100319	KeyDown	42314	2	Ring	9
167.4216666666667	0	n/a	100454	KeyDown	42314	3	Middle	9
168.0133333333333	0	n/a	100809	KeyDown	42314	1	Little	9
168.1816666666667	0	n/a	100910	KeyDown	42314	4	Index	9
168.3883333333333	0	n/a	101034	KeyDown	42314	4	Index	9
168.8116666666667	0	n/a	101288	KeyDown	42314	2	Ring	9
169.5466666666667	0	n/a	101729	KeyDown	42314	3	Middle	9
169.7816666666667	0	n/a	101870	KeyDown	42314	1	Little	9
170.0466666666667	0	n/a	102029	KeyDown	42314	4	Index	9
170.2833333333333	0	n/a	102171	KeyDown	42314	4	Index	9
171.0933333333333	0	n/a	102657	KeyDown	42314	2	Ring	9
171.9433333333334	0	n/a	103167	KeyDown	42314	3	Middle	9
172.1800000000000	0	n/a	103309	KeyDown	42314	1	Little	9
172.4600000000000	0	n/a	103477	KeyDown	42314	4	Index	9
172.7683333333333	0	n/a	103662	KeyDown	42314	4	Index	9
173.4683333333333	0	n/a	104082	KeyDown	42314	2	Ring	9
174.0916666666667	0	n/a	104456	KeyDown	42314	3	Middle	9
174.2266666666667	0	n/a	104537	StopPractice	42314	n/a	n/a	9
174.2283333333334	0	n/a	104538	StartRest	XXXXX	n/a	n/a	9
184.2633333333333	0	n/a	110559	StopRest	XXXXX	n/a	n/a	9
