onset	duration	channel	onset_sample_idx	event_type	target_sequence	keypress_id	finger_label	trial_number
-0.4783333333333	0	UPPT001	NaN	StartPractice	41324	n/a	n/a	1
9.5600000000000	0	n/a	5737	StopPractice	41324	n/a	n/a	1
9.5616666666667	0	n/a	5738	StartRest	XXXXX	n/a	n/a	1
19.5950000000000	0	n/a	11758	StopRest	XXXXX	n/a	n/a	1
19.5966666666667	0	UPPT001	11759	StartPractice	41324	n/a	n/a	2
20.4433333333333	0	n/a	12267	KeyDown	41324	4	Index	2
20.8733333333333	0	n/a	12525	KeyDown	41324	1	Little	2
21.5133333333333	0	n/a	12909	KeyDown	41324	3	Middle	2
21.9850000000000	0	n/a	13192	KeyDown	41324	2	Ring	2
22.7150000000000	0	n/a	13630	KeyDown	41324	4	Index	2
23.2900000000000	0	n/a	13975	KeyDown	41324	4	Index	2
23.6366666666667	0	n/a	14183	KeyDown	41324	1	Little	2
24.3400000000000	0	n/a	14605	KeyDown	41324	3	Middle	2
24.7683333333333	0	n/a	14862	KeyDown	41324	2	Ring	2
25.9716666666667	0	n/a	15584	KeyDown	41324	4	Index	2
26.7250000000000	0	n/a	16036	KeyDown	41324	4	Index	2
27.0716666666667	0	n/a	16244	KeyDown	41324	1	Little	2
27.6866666666667	0	n/a	16613	KeyDown	41324	3	Middle	2
28.2750000000000	0	n/a	16966	KeyDown	41324	2	Ring	2
28.7966666666667	0	n/a	17279	KeyDown	41324	4	Index	2
29.5633333333333	0	n/a	17739	KeyDown	41324	4	Index	2
29.6350000000000	0	n/a	17782	StopPractice	41324	n/a	n/a	2
29.6366666666667	0	n/a	17783	StartRest	XXXXX	n/a	n/a	2
39.6700000000000	0	n/a	23803	StopRest	XXXXX	n/a	n/a	2
39.6716666666667	0	UPPT001	23804	StartPractice	41324	n/a	n/a	3
40.8083333333333	0	n/a	24486	KeyDown	41324	4	Index	3
41.1300000000000	0	n/a	24679	KeyDown	41324	1	Little	3
41.6433333333333	0	n/a	24987	KeyDown	41324	3	Middle	3
42.1000000000000	0	n/a	25261	KeyDown	41324	2	Ring	3
42.9550000000000	0	n/a	25774	KeyDown	41324	4	Index	3
43.5600000000000	0	n/a	26137	KeyDown	41324	4	Index	3
43.8600000000000	0	n/a	26317	KeyDown	41324	1	Little	3
44.3333333333333	0	n/a	26601	KeyDown	41324	3	Middle	3
44.7266666666667	0	n/a	26837	KeyDown	41324	2	Ring	3
45.1233333333333	0	n/a	27075	KeyDown	41324	4	Index	3
45.9216666666667	0	n/a	27554	KeyDown	41324	4	Index	3
46.2150000000000	0	n/a	27730	KeyDown	41324	1	Little	3
46.6166666666667	0	n/a	27971	KeyDown	41324	3	Middle	3
47.0333333333333	0	n/a	28221	KeyDown	41324	2	Ring	3
47.4333333333333	0	n/a	28461	KeyDown	41324	4	Index	3
47.9383333333333	0	n/a	28764	KeyDown	41324	4	Index	3
48.2150000000000	0	n/a	28930	KeyDown	41324	1	Little	3
48.5600000000000	0	n/a	29137	KeyDown	41324	3	Middle	3
48.8316666666667	0	n/a	29300	KeyDown	41324	2	Ring	3
49.1816666666667	0	n/a	29510	KeyDown	41324	4	Index	3
49.6183333333333	0	n/a	29772	KeyDown	41324	4	Index	3
49.7100000000000	0	n/a	29827	StopPractice	41324	n/a	n/a	3
49.7116666666667	0	n/a	29828	StartRest	XXXXX	n/a	n/a	3
59.7450000000000	0	n/a	35848	StopRest	XXXXX	n/a	n/a	3
59.7466666666667	0	UPPT001	35849	StartPractice	41324	n/a	n/a	4
60.4050000000000	0	n/a	36244	KeyDown	41324	4	Index	4
60.7400000000000	0	n/a	36445	KeyDown	41324	1	Little	4
61.1050000000000	0	n/a	36664	KeyDown	41324	3	Middle	4
61.4400000000000	0	n/a	36865	KeyDown	41324	2	Ring	4
61.8000000000000	0	n/a	37081	KeyDown	41324	4	Index	4
62.2616666666667	0	n/a	37358	KeyDown	41324	4	Index	4
62.5833333333333	0	n/a	37551	KeyDown	41324	1	Little	4
63.1650000000000	0	n/a	37900	KeyDown	41324	3	Middle	4
63.5133333333333	0	n/a	38109	KeyDown	41324	2	Ring	4
63.8466666666667	0	n/a	38309	KeyDown	41324	4	Index	4
64.5483333333333	0	n/a	38730	KeyDown	41324	4	Index	4
64.8783333333333	0	n/a	38928	KeyDown	41324	1	Little	4
65.5233333333333	0	n/a	39315	KeyDown	41324	3	Middle	4
65.8433333333333	0	n/a	39507	KeyDown	41324	2	Ring	4
66.1483333333333	0	n/a	39690	KeyDown	41324	4	Index	4
66.6333333333333	0	n/a	39981	KeyDown	41324	4	Index	4
66.9733333333333	0	n/a	40185	KeyDown	41324	1	Little	4
67.3766666666667	0	n/a	40427	KeyDown	41324	3	Middle	4
67.6433333333333	0	n/a	40587	KeyDown	41324	2	Ring	4
68.0233333333333	0	n/a	40815	KeyDown	41324	4	Index	4
68.5750000000000	0	n/a	41146	KeyDown	41324	4	Index	4
68.8716666666667	0	n/a	41324	KeyDown	41324	1	Little	4
69.2333333333333	0	n/a	41541	KeyDown	41324	3	Middle	4
69.5133333333333	0	n/a	41709	KeyDown	41324	2	Ring	4
69.7850000000000	0	n/a	41872	StopPractice	41324	n/a	n/a	4
69.7866666666667	0	n/a	41873	StartRest	XXXXX	n/a	n/a	4
79.8200000000000	0	n/a	47893	StopRest	XXXXX	n/a	n/a	4
79.8216666666667	0	UPPT001	47894	StartPractice	41324	n/a	n/a	5
80.4750000000000	0	n/a	48286	KeyDown	41324	4	Index	5
80.8600000000000	0	n/a	48517	KeyDown	41324	1	Little	5
81.2583333333333	0	n/a	48756	KeyDown	41324	3	Middle	5
81.7283333333333	0	n/a	49038	KeyDown	41324	2	Ring	5
82.1066666666667	0	n/a	49265	KeyDown	41324	4	Index	5
82.6333333333333	0	n/a	49581	KeyDown	41324	4	Index	5
82.9783333333333	0	n/a	49788	KeyDown	41324	1	Little	5
83.3733333333333	0	n/a	50025	KeyDown	41324	3	Middle	5
83.7066666666667	0	n/a	50225	KeyDown	41324	2	Ring	5
84.0700000000000	0	n/a	50443	KeyDown	41324	4	Index	5
84.7050000000000	0	n/a	50824	KeyDown	41324	4	Index	5
84.9550000000000	0	n/a	50974	KeyDown	41324	1	Little	5
85.3150000000000	0	n/a	51190	KeyDown	41324	3	Middle	5
85.6533333333333	0	n/a	51393	KeyDown	41324	2	Ring	5
85.9550000000000	0	n/a	51574	KeyDown	41324	4	Index	5
86.3916666666667	0	n/a	51836	KeyDown	41324	4	Index	5
86.6500000000000	0	n/a	51991	KeyDown	41324	1	Little	5
86.9700000000000	0	n/a	52183	KeyDown	41324	3	Middle	5
87.2200000000000	0	n/a	52333	KeyDown	41324	2	Ring	5
87.5083333333333	0	n/a	52506	KeyDown	41324	4	Index	5
88.0016666666667	0	n/a	52802	KeyDown	41324	4	Index	5
88.3150000000000	0	n/a	52990	KeyDown	41324	1	Little	5
88.6250000000000	0	n/a	53176	KeyDown	41324	3	Middle	5
88.8816666666667	0	n/a	53330	KeyDown	41324	2	Ring	5
89.1783333333333	0	n/a	53508	KeyDown	41324	4	Index	5
89.7033333333333	0	n/a	53823	KeyDown	41324	4	Index	5
89.8600000000000	0	n/a	53917	StopPractice	41324	n/a	n/a	5
89.8616666666667	0	n/a	53918	StartRest	XXXXX	n/a	n/a	5
99.8950000000000	0	n/a	59938	StopRest	XXXXX	n/a	n/a	5
99.8966666666667	0	UPPT001	59939	StartPractice	41324	n/a	n/a	6
100.4850000000000	0	n/a	60292	KeyDown	41324	4	Index	6
100.8133333333333	0	n/a	60489	KeyDown	41324	1	Little	6
101.1650000000000	0	n/a	60700	KeyDown	41324	3	Middle	6
101.4783333333333	0	n/a	60888	KeyDown	41324	2	Ring	6
101.7966666666667	0	n/a	61079	KeyDown	41324	4	Index	6
102.1650000000000	0	n/a	61300	KeyDown	41324	4	Index	6
102.4683333333333	0	n/a	61482	KeyDown	41324	1	Little	6
102.7933333333333	0	n/a	61677	KeyDown	41324	3	Middle	6
103.0600000000000	0	n/a	61837	KeyDown	41324	2	Ring	6
103.4033333333333	0	n/a	62043	KeyDown	41324	4	Index	6
103.7500000000000	0	n/a	62251	KeyDown	41324	4	Index	6
104.0283333333333	0	n/a	62418	KeyDown	41324	1	Little	6
104.3650000000000	0	n/a	62620	KeyDown	41324	3	Middle	6
104.6733333333333	0	n/a	62805	KeyDown	41324	2	Ring	6
105.0133333333333	0	n/a	63009	KeyDown	41324	4	Index	6
105.3916666666667	0	n/a	63236	KeyDown	41324	4	Index	6
105.6600000000000	0	n/a	63397	KeyDown	41324	1	Little	6
105.9850000000000	0	n/a	63592	KeyDown	41324	3	Middle	6
106.2583333333333	0	n/a	63756	KeyDown	41324	2	Ring	6
106.5833333333333	0	n/a	63951	KeyDown	41324	4	Index	6
106.9366666666667	0	n/a	64163	KeyDown	41324	4	Index	6
107.2033333333333	0	n/a	64323	KeyDown	41324	1	Little	6
107.4866666666667	0	n/a	64493	KeyDown	41324	3	Middle	6
107.7550000000000	0	n/a	64654	KeyDown	41324	2	Ring	6
108.0200000000000	0	n/a	64813	KeyDown	41324	4	Index	6
108.3633333333333	0	n/a	65019	KeyDown	41324	4	Index	6
108.6000000000000	0	n/a	65161	KeyDown	41324	1	Little	6
108.9316666666667	0	n/a	65360	KeyDown	41324	3	Middle	6
109.2533333333333	0	n/a	65553	KeyDown	41324	2	Ring	6
109.6350000000000	0	n/a	65782	KeyDown	41324	4	Index	6
109.9350000000000	0	n/a	65962	StopPractice	41324	n/a	n/a	6
109.9366666666667	0	n/a	65963	StartRest	XXXXX	n/a	n/a	6
119.9700000000000	0	n/a	71983	StopRest	XXXXX	n/a	n/a	6
119.9716666666667	0	UPPT001	71984	StartPractice	41324	n/a	n/a	7
120.7250000000000	0	n/a	72436	KeyDown	41324	4	Index	7
121.1050000000000	0	n/a	72664	KeyDown	41324	1	Little	7
121.4650000000000	0	n/a	72880	KeyDown	41324	3	Middle	7
121.8033333333333	0	n/a	73083	KeyDown	41324	2	Ring	7
122.1483333333333	0	n/a	73290	KeyDown	41324	4	Index	7
122.6366666666667	0	n/a	73583	KeyDown	41324	4	Index	7
123.0583333333333	0	n/a	73836	KeyDown	41324	1	Little	7
123.4116666666667	0	n/a	74048	KeyDown	41324	3	Middle	7
123.7683333333333	0	n/a	74262	KeyDown	41324	2	Ring	7
124.0866666666667	0	n/a	74453	KeyDown	41324	4	Index	7
124.6250000000000	0	n/a	74776	KeyDown	41324	4	Index	7
125.0050000000000	0	n/a	75004	KeyDown	41324	1	Little	7
125.3650000000000	0	n/a	75220	KeyDown	41324	3	Middle	7
125.6633333333333	0	n/a	75399	KeyDown	41324	2	Ring	7
126.0083333333333	0	n/a	75606	KeyDown	41324	4	Index	7
126.5433333333333	0	n/a	75927	KeyDown	41324	4	Index	7
126.8633333333333	0	n/a	76119	KeyDown	41324	1	Little	7
127.1700000000000	0	n/a	76303	KeyDown	41324	3	Middle	7
127.4800000000000	0	n/a	76489	KeyDown	41324	2	Ring	7
127.8150000000000	0	n/a	76690	KeyDown	41324	4	Index	7
128.3166666666667	0	n/a	76991	KeyDown	41324	4	Index	7
128.6700000000000	0	n/a	77203	KeyDown	41324	1	Little	7
129.0066666666667	0	n/a	77405	KeyDown	41324	3	Middle	7
129.2733333333333	0	n/a	77565	KeyDown	41324	2	Ring	7
129.5883333333333	0	n/a	77754	KeyDown	41324	4	Index	7
130.0100000000000	0	n/a	78007	StopPractice	41324	n/a	n/a	7
130.0116666666667	0	n/a	78008	StartRest	XXXXX	n/a	n/a	7
140.0450000000000	0	n/a	84028	StopRest	XXXXX	n/a	n/a	7
140.0466666666667	0	UPPT001	84029	StartPractice	41324	n/a	n/a	8
140.5700000000000	0	n/a	84343	KeyDown	41324	4	Index	8
141.0333333333333	0	n/a	84621	KeyDown	41324	1	Little	8
141.3733333333333	0	n/a	84825	KeyDown	41324	3	Middle	8
141.6533333333333	0	n/a	84993	KeyDown	41324	2	Ring	8
141.9800000000000	0	n/a	85189	KeyDown	41324	4	Index	8
142.3783333333333	0	n/a	85428	KeyDown	41324	4	Index	8
142.6733333333333	0	n/a	85605	KeyDown	41324	1	Little	8
142.9833333333333	0	n/a	85791	KeyDown	41324	3	Middle	8
143.2400000000000	0	n/a	85945	KeyDown	41324	2	Ring	8
143.5250000000000	0	n/a	86116	KeyDown	41324	4	Index	8
143.8733333333333	0	n/a	86325	KeyDown	41324	4	Index	8
144.1333333333334	0	n/a	86481	KeyDown	41324	1	Little	8
144.4383333333333	0	n/a	86664	KeyDown	41324	3	Middle	8
144.6783333333333	0	n/a	86808	KeyDown	41324	2	Ring	8
144.9583333333333	0	n/a	86976	KeyDown	41324	4	Index	8
145.2633333333333	0	n/a	87159	KeyDown	41324	4	Index	8
145.6316666666667	0	n/a	87380	KeyDown	41324	1	Little	8
145.9433333333334	0	n/a	87567	KeyDown	41324	3	Middle	8
146.1833333333333	0	n/a	87711	KeyDown	41324	2	Ring	8
146.4583333333333	0	n/a	87876	KeyDown	41324	4	Index	8
146.7700000000000	0	n/a	88063	KeyDown	41324	4	Index	8
147.0366666666667	0	n/a	88223	KeyDown	41324	1	Little	8
147.3283333333333	0	n/a	88398	KeyDown	41324	3	Middle	8
147.5283333333333	0	n/a	88518	KeyDown	41324	2	Ring	8
147.7833333333333	0	n/a	88671	KeyDown	41324	4	Index	8
148.0450000000000	0	n/a	88828	KeyDown	41324	4	Index	8
148.2933333333334	0	n/a	88977	KeyDown	41324	1	Little	8
148.9333333333333	0	n/a	89361	KeyDown	41324	3	Middle	8
149.1950000000000	0	n/a	89518	KeyDown	41324	2	Ring	8
149.4200000000000	0	n/a	89653	KeyDown	41324	4	Index	8
149.7650000000000	0	n/a	89860	KeyDown	41324	4	Index	8
150.0850000000000	0	n/a	90052	StopPractice	41324	n/a	n/a	8
150.0866666666667	0	n/a	90053	StartRest	XXXXX	n/a	n/a	8
160.1183333333333	0	n/a	96072	StopRest	XXXXX	n/a	n/a	8
160.1200000000000	0	UPPT001	96073	StartPractice	41324	n/a	n/a	9
160.6516666666667	0	n/a	96392	KeyDown	41324	4	Index	9
160.9983333333333	0	n/a	96600	KeyDown	41324	1	Little	9
161.3100000000000	0	n/a	96787	KeyDown	41324	3	Middle	9
161.5833333333333	0	n/a	96951	KeyDown	41324	2	Ring	9
161.9083333333333	0	n/a	97146	KeyDown	41324	4	Index	9
162.4083333333333	0	n/a	97446	KeyDown	41324	4	Index	9
162.7166666666667	0	n/a	97631	KeyDown	41324	1	Little	9
163.0633333333333	0	n/a	97839	KeyDown	41324	3	Middle	9
163.3183333333334	0	n/a	97992	KeyDown	41324	2	Ring	9
163.6316666666667	0	n/a	98180	KeyDown	41324	4	Index	9
164.0416666666667	0	n/a	98426	KeyDown	41324	4	Index	9
164.3333333333333	0	n/a	98601	KeyDown	41324	1	Little	9
164.6366666666667	0	n/a	98783	KeyDown	41324	3	Middle	9
164.8933333333333	0	n/a	98937	KeyDown	41324	2	Ring	9
165.2383333333333	0	n/a	99144	KeyDown	41324	4	Index	9
165.7933333333334	0	n/a	99477	KeyDown	41324	4	Index	9
166.0833333333333	0	n/a	99651	KeyDown	41324	1	Little	9
166.4083333333333	0	n/a	99846	KeyDown	41324	3	Middle	9
166.6483333333333	0	n/a	99990	KeyDown	41324	2	Ring	9
166.9366666666667	0	n/a	100163	KeyDown	41324	4	Index	9
167.4233333333333	0	n/a	100455	KeyDown	41324	4	Index	9
167.6916666666667	0	n/a	100616	KeyDown	41324	1	Little	9
168.0016666666667	0	n/a	100802	KeyDown	41324	3	Middle	9
168.2433333333333	0	n/a	100947	KeyDown	41324	2	Ring	9
168.4983333333333	0	n/a	101100	KeyDown	41324	4	Index	9
168.9766666666667	0	n/a	101387	KeyDown	41324	4	Index	9
169.2483333333333	0	n/a	101550	KeyDown	41324	1	Little	9
169.5266666666667	0	n/a	101717	KeyDown	41324	3	Middle	9
169.7483333333333	0	n/a	101850	KeyDown	41324	2	Ring	9
169.9566666666667	0	n/a	101975	KeyDown	41324	4	Index	9
170.1583333333333	0	n/a	102096	StopPractice	41324	n/a	n/a	9
170.1600000000000	0	n/a	102097	StartRest	XXXXX	n/a	n/a	9
180.1933333333334	0	n/a	108117	StopRest	XXXXX	n/a	n/a	9
180.1950000000000	0	UPPT001	108118	StartPractice	41324	n/a	n/a	10
180.7416666666667	0	n/a	108446	KeyDown	41324	4	Index	10
181.0466666666667	0	n/a	108629	KeyDown	41324	1	Little	10
181.3883333333333	0	n/a	108834	KeyDown	41324	3	Middle	10
181.6333333333334	0	n/a	108981	KeyDown	41324	2	Ring	10
181.8950000000000	0	n/a	109138	KeyDown	41324	4	Index	10
182.3333333333333	0	n/a	109401	KeyDown	41324	4	Index	10
182.6183333333333	0	n/a	109572	KeyDown	41324	1	Little	10
182.9533333333333	0	n/a	109773	KeyDown	41324	3	Middle	10
183.1966666666667	0	n/a	109919	KeyDown	41324	2	Ring	10
183.4583333333333	0	n/a	110076	KeyDown	41324	4	Index	10
183.9400000000000	0	n/a	110365	KeyDown	41324	4	Index	10
184.2100000000000	0	n/a	110527	KeyDown	41324	1	Little	10
184.5266666666667	0	n/a	110717	KeyDown	41324	3	Middle	10
184.7983333333333	0	n/a	110880	KeyDown	41324	2	Ring	10
185.0766666666667	0	n/a	111047	KeyDown	41324	4	Index	10
185.5916666666667	0	n/a	111356	KeyDown	41324	4	Index	10
185.8583333333333	0	n/a	111516	KeyDown	41324	1	Little	10
186.1583333333333	0	n/a	111696	KeyDown	41324	3	Middle	10
186.4166666666667	0	n/a	111851	KeyDown	41324	2	Ring	10
186.6516666666667	0	n/a	111992	KeyDown	41324	4	Index	10
187.0800000000000	0	n/a	112249	KeyDown	41324	4	Index	10
187.3266666666667	0	n/a	112397	KeyDown	41324	1	Little	10
187.6100000000000	0	n/a	112567	KeyDown	41324	3	Middle	10
187.8516666666667	0	n/a	112712	KeyDown	41324	2	Ring	10
188.1000000000000	0	n/a	112861	KeyDown	41324	4	Index	10
188.5350000000000	0	n/a	113122	KeyDown	41324	4	Index	10
188.7833333333333	0	n/a	113271	KeyDown	41324	1	Little	10
189.0683333333334	0	n/a	113442	KeyDown	41324	3	Middle	10
189.2900000000000	0	n/a	113575	KeyDown	41324	2	Ring	10
189.5033333333334	0	n/a	113703	KeyDown	41324	4	Index	10
189.9300000000000	0	n/a	113959	KeyDown	41324	4	Index	10
190.1733333333333	0	n/a	114105	KeyDown	41324	1	Little	10
190.2333333333333	0	n/a	114141	StopPractice	41324	n/a	n/a	10
190.2350000000000	0	n/a	114142	StartRest	XXXXX	n/a	n/a	10
200.2683333333333	0	n/a	120162	StopRest	XXXXX	n/a	n/a	10
200.2700000000000	0	UPPT001	120163	StartPractice	41324	n/a	n/a	11
200.8983333333333	0	n/a	120540	KeyDown	41324	4	Index	11
201.2066666666667	0	n/a	120725	KeyDown	41324	1	Little	11
201.5716666666667	0	n/a	120944	KeyDown	41324	3	Middle	11
201.8133333333333	0	n/a	121089	KeyDown	41324	2	Ring	11
202.0783333333333	0	n/a	121248	KeyDown	41324	4	Index	11
202.5516666666667	0	n/a	121532	KeyDown	41324	4	Index	11
202.8466666666667	0	n/a	121709	KeyDown	41324	1	Little	11
203.1800000000000	0	n/a	121909	KeyDown	41324	3	Middle	11
203.4416666666667	0	n/a	122066	KeyDown	41324	2	Ring	11
203.7133333333333	0	n/a	122229	KeyDown	41324	4	Index	11
204.1466666666667	0	n/a	122489	KeyDown	41324	4	Index	11
204.4500000000000	0	n/a	122671	KeyDown	41324	1	Little	11
204.7800000000000	0	n/a	122869	KeyDown	41324	3	Middle	11
205.0233333333333	0	n/a	123015	KeyDown	41324	2	Ring	11
205.2733333333333	0	n/a	123165	KeyDown	41324	4	Index	11
205.7850000000000	0	n/a	123472	KeyDown	41324	4	Index	11
206.0616666666667	0	n/a	123638	KeyDown	41324	1	Little	11
206.3866666666667	0	n/a	123833	KeyDown	41324	3	Middle	11
206.6233333333333	0	n/a	123975	KeyDown	41324	2	Ring	11
206.8350000000000	0	n/a	124102	KeyDown	41324	4	Index	11
207.4116666666667	0	n/a	124448	KeyDown	41324	4	Index	11
207.6750000000000	0	n/a	124606	KeyDown	41324	1	Little	11
207.9933333333333	0	n/a	124797	KeyDown	41324	3	Middle	11
208.2016666666667	0	n/a	124922	KeyDown	41324	2	Ring	11
208.4616666666667	0	n/a	125078	KeyDown	41324	4	Index	11
208.9683333333333	0	n/a	125382	KeyDown	41324	4	Index	11
209.2800000000000	0	n/a	125569	KeyDown	41324	1	Little	11
209.6183333333333	0	n/a	125772	KeyDown	41324	3	Middle	11
209.8333333333333	0	n/a	125901	KeyDown	41324	2	Ring	11
210.0766666666667	0	n/a	126047	KeyDown	41324	4	Index	11
210.3083333333333	0	n/a	126186	StopPractice	41324	n/a	n/a	11
210.3100000000000	0	n/a	126187	StartRest	XXXXX	n/a	n/a	11
220.3433333333333	0	n/a	132207	StopRest	XXXXX	n/a	n/a	11
220.3450000000000	0	UPPT001	132208	StartPractice	41324	n/a	n/a	12
221.1816666666667	0	n/a	132710	KeyDown	41324	4	Index	12
221.4483333333334	0	n/a	132870	KeyDown	41324	1	Little	12
221.7583333333334	0	n/a	133056	KeyDown	41324	3	Middle	12
221.9683333333333	0	n/a	133182	KeyDown	41324	2	Ring	12
222.2283333333334	0	n/a	133338	KeyDown	41324	4	Index	12
222.6133333333333	0	n/a	133569	KeyDown	41324	4	Index	12
222.8566666666667	0	n/a	133715	KeyDown	41324	1	Little	12
223.1816666666667	0	n/a	133910	KeyDown	41324	3	Middle	12
223.3916666666667	0	n/a	134036	KeyDown	41324	2	Ring	12
223.6200000000000	0	n/a	134173	KeyDown	41324	4	Index	12
224.0283333333333	0	n/a	134418	KeyDown	41324	4	Index	12
224.2566666666667	0	n/a	134555	KeyDown	41324	1	Little	12
224.5383333333334	0	n/a	134724	KeyDown	41324	3	Middle	12
224.7450000000000	0	n/a	134848	KeyDown	41324	2	Ring	12
224.9700000000000	0	n/a	134983	KeyDown	41324	4	Index	12
225.3700000000000	0	n/a	135223	KeyDown	41324	4	Index	12
225.6133333333333	0	n/a	135369	KeyDown	41324	1	Little	12
225.9000000000000	0	n/a	135541	KeyDown	41324	3	Middle	12
226.1050000000000	0	n/a	135664	KeyDown	41324	2	Ring	12
226.2966666666667	0	n/a	135779	KeyDown	41324	4	Index	12
226.6966666666667	0	n/a	136019	KeyDown	41324	4	Index	12
226.9116666666667	0	n/a	136148	KeyDown	41324	1	Little	12
227.5050000000000	0	n/a	136504	KeyDown	41324	3	Middle	12
227.7033333333333	0	n/a	136623	KeyDown	41324	2	Ring	12
227.9300000000000	0	n/a	136759	KeyDown	41324	4	Index	12
228.3183333333334	0	n/a	136992	KeyDown	41324	4	Index	12
228.5066666666667	0	n/a	137105	KeyDown	41324	1	Little	12
228.7683333333333	0	n/a	137262	KeyDown	41324	3	Middle	12
228.9566666666667	0	n/a	137375	KeyDown	41324	2	Ring	12
229.1366666666667	0	n/a	137483	KeyDown	41324	4	Index	12
229.5633333333334	0	n/a	137739	KeyDown	41324	4	Index	12
229.8166666666667	0	n/a	137891	KeyDown	41324	1	Little	12
230.0483333333333	0	n/a	138030	KeyDown	41324	3	Middle	12
230.2383333333333	0	n/a	138144	KeyDown	41324	2	Ring	12
230.3833333333334	0	n/a	138231	StopPractice	41324	n/a	n/a	12
230.3850000000000	0	n/a	138232	StartRest	XXXXX	n/a	n/a	12
240.4183333333334	0	n/a	144252	StopRest	XXXXX	n/a	n/a	12
240.4200000000000	0	UPPT001	144253	StartPractice	41324	n/a	n/a	13
241.0216666666667	0	n/a	144614	KeyDown	41324	4	Index	13
241.3333333333333	0	n/a	144801	KeyDown	41324	1	Little	13
241.6533333333333	0	n/a	144993	KeyDown	41324	3	Middle	13
241.9066666666667	0	n/a	145145	KeyDown	41324	2	Ring	13
242.1633333333334	0	n/a	145299	KeyDown	41324	4	Index	13
242.5350000000000	0	n/a	145522	KeyDown	41324	4	Index	13
242.7966666666667	0	n/a	145679	KeyDown	41324	1	Little	13
243.3933333333333	0	n/a	146037	KeyDown	41324	3	Middle	13
243.6233333333333	0	n/a	146175	KeyDown	41324	2	Ring	13
243.8900000000000	0	n/a	146335	KeyDown	41324	4	Index	13
244.3533333333334	0	n/a	146613	KeyDown	41324	4	Index	13
244.6033333333334	0	n/a	146763	KeyDown	41324	1	Little	13
244.9733333333334	0	n/a	146985	KeyDown	41324	3	Middle	13
245.2016666666667	0	n/a	147122	KeyDown	41324	2	Ring	13
245.4666666666667	0	n/a	147281	KeyDown	41324	4	Index	13
245.8916666666667	0	n/a	147536	KeyDown	41324	4	Index	13
246.0983333333334	0	n/a	147660	KeyDown	41324	1	Little	13
246.4533333333333	0	n/a	147873	KeyDown	41324	3	Middle	13
246.6583333333334	0	n/a	147996	KeyDown	41324	2	Ring	13
246.8566666666667	0	n/a	148115	KeyDown	41324	4	Index	13
247.3233333333334	0	n/a	148395	KeyDown	41324	4	Index	13
247.5583333333333	0	n/a	148536	KeyDown	41324	1	Little	13
247.8916666666667	0	n/a	148736	KeyDown	41324	3	Middle	13
248.0633333333334	0	n/a	148839	KeyDown	41324	2	Ring	13
248.2616666666667	0	n/a	148958	KeyDown	41324	4	Index	13
248.7200000000000	0	n/a	149233	KeyDown	41324	4	Index	13
248.9200000000000	0	n/a	149353	KeyDown	41324	1	Little	13
249.2316666666667	0	n/a	149540	KeyDown	41324	3	Middle	13
249.4300000000000	0	n/a	149659	KeyDown	41324	2	Ring	13
249.6383333333333	0	n/a	149784	KeyDown	41324	4	Index	13
250.0716666666667	0	n/a	150044	KeyDown	41324	4	Index	13
250.2683333333333	0	n/a	150162	KeyDown	41324	1	Little	13
250.4583333333333	0	n/a	150276	StopPractice	41324	n/a	n/a	13
250.4600000000000	0	n/a	150277	StartRest	XXXXX	n/a	n/a	13
260.4933333333333	0	n/a	156297	StopRest	XXXXX	n/a	n/a	13
260.4950000000000	0	UPPT001	156298	StartPractice	41324	n/a	n/a	14
260.9666666666667	0	n/a	156581	KeyDown	41324	4	Index	14
261.2500000000000	0	n/a	156751	KeyDown	41324	1	Little	14
261.5383333333334	0	n/a	156924	KeyDown	41324	3	Middle	14
261.8016666666667	0	n/a	157082	KeyDown	41324	2	Ring	14
262.0250000000000	0	n/a	157216	KeyDown	41324	4	Index	14
262.3616666666667	0	n/a	157418	KeyDown	41324	4	Index	14
262.6233333333333	0	n/a	157575	KeyDown	41324	1	Little	14
262.9266666666667	0	n/a	157757	KeyDown	41324	3	Middle	14
263.1933333333333	0	n/a	157917	KeyDown	41324	2	Ring	14
263.4433333333333	0	n/a	158067	KeyDown	41324	4	Index	14
263.8083333333333	0	n/a	158286	KeyDown	41324	4	Index	14
264.0383333333334	0	n/a	158424	KeyDown	41324	1	Little	14
264.3283333333334	0	n/a	158598	KeyDown	41324	3	Middle	14
264.5666666666667	0	n/a	158741	KeyDown	41324	2	Ring	14
264.7916666666667	0	n/a	158876	KeyDown	41324	4	Index	14
265.1583333333334	0	n/a	159096	KeyDown	41324	4	Index	14
265.3833333333333	0	n/a	159231	KeyDown	41324	1	Little	14
265.6483333333334	0	n/a	159390	KeyDown	41324	3	Middle	14
265.8466666666667	0	n/a	159509	KeyDown	41324	2	Ring	14
266.0650000000000	0	n/a	159640	KeyDown	41324	4	Index	14
266.4200000000000	0	n/a	159853	KeyDown	41324	4	Index	14
266.6366666666667	0	n/a	159983	KeyDown	41324	1	Little	14
266.9416666666667	0	n/a	160166	KeyDown	41324	3	Middle	14
267.1566666666667	0	n/a	160295	KeyDown	41324	2	Ring	14
267.3716666666667	0	n/a	160424	KeyDown	41324	4	Index	14
267.7666666666667	0	n/a	160661	KeyDown	41324	4	Index	14
267.9750000000000	0	n/a	160786	KeyDown	41324	1	Little	14
268.2366666666667	0	n/a	160943	KeyDown	41324	3	Middle	14
268.4783333333334	0	n/a	161088	KeyDown	41324	2	Ring	14
268.6633333333334	0	n/a	161199	KeyDown	41324	4	Index	14
269.0383333333334	0	n/a	161424	KeyDown	41324	4	Index	14
269.2533333333333	0	n/a	161553	KeyDown	41324	1	Little	14
269.5450000000000	0	n/a	161728	KeyDown	41324	3	Middle	14
269.7883333333334	0	n/a	161874	KeyDown	41324	2	Ring	14
269.9566666666667	0	n/a	161975	KeyDown	41324	4	Index	14
270.3316666666667	0	n/a	162200	KeyDown	41324	4	Index	14
270.5333333333334	0	n/a	162321	StopPractice	41324	n/a	n/a	14
270.5350000000000	0	n/a	162322	StartRest	XXXXX	n/a	n/a	14
280.5683333333333	0	n/a	168342	StopRest	XXXXX	n/a	n/a	14
280.5700000000000	0	UPPT001	168343	StartPractice	41324	n/a	n/a	15
281.3566666666667	0	n/a	168815	KeyDown	41324	4	Index	15
281.6650000000000	0	n/a	169000	KeyDown	41324	1	Little	15
281.9783333333334	0	n/a	169188	KeyDown	41324	3	Middle	15
282.1816666666667	0	n/a	169310	KeyDown	41324	2	Ring	15
282.6400000000000	0	n/a	169585	KeyDown	41324	4	Index	15
283.1583333333334	0	n/a	169896	KeyDown	41324	4	Index	15
283.3933333333334	0	n/a	170037	KeyDown	41324	1	Little	15
283.6383333333334	0	n/a	170184	KeyDown	41324	3	Middle	15
283.8233333333333	0	n/a	170295	KeyDown	41324	2	Ring	15
284.0066666666667	0	n/a	170405	KeyDown	41324	4	Index	15
284.4666666666667	0	n/a	170681	KeyDown	41324	4	Index	15
284.7083333333334	0	n/a	170826	KeyDown	41324	1	Little	15
285.3650000000000	0	n/a	171220	KeyDown	41324	3	Middle	15
285.5800000000000	0	n/a	171349	KeyDown	41324	2	Ring	15
285.8033333333333	0	n/a	171483	KeyDown	41324	4	Index	15
286.2233333333334	0	n/a	171735	KeyDown	41324	4	Index	15
286.4350000000000	0	n/a	171862	KeyDown	41324	1	Little	15
286.6983333333333	0	n/a	172020	KeyDown	41324	3	Middle	15
286.8983333333334	0	n/a	172140	KeyDown	41324	2	Ring	15
287.0966666666667	0	n/a	172259	KeyDown	41324	4	Index	15
287.5166666666667	0	n/a	172511	KeyDown	41324	4	Index	15
287.7683333333334	0	n/a	172662	KeyDown	41324	1	Little	15
288.4166666666667	0	n/a	173051	KeyDown	41324	3	Middle	15
288.5916666666667	0	n/a	173156	KeyDown	41324	2	Ring	15
288.9716666666667	0	n/a	173384	KeyDown	41324	4	Index	15
289.5883333333334	0	n/a	173754	KeyDown	41324	4	Index	15
289.8483333333334	0	n/a	173910	KeyDown	41324	1	Little	15
290.1416666666667	0	n/a	174086	KeyDown	41324	3	Middle	15
290.3900000000000	0	n/a	174235	KeyDown	41324	2	Ring	15
290.5666666666667	0	n/a	174341	KeyDown	41324	4	Index	15
290.6083333333333	0	n/a	174366	StopPractice	41324	n/a	n/a	15
290.6100000000000	0	n/a	174367	StartRest	XXXXX	n/a	n/a	15
300.6433333333334	0	n/a	180387	StopRest	XXXXX	n/a	n/a	15
300.6450000000000	0	UPPT001	180388	StartPractice	41324	n/a	n/a	16
301.1966666666667	0	n/a	180719	KeyDown	41324	4	Index	16
301.5466666666667	0	n/a	180929	KeyDown	41324	1	Little	16
301.9000000000000	0	n/a	181141	KeyDown	41324	3	Middle	16
302.1683333333334	0	n/a	181302	KeyDown	41324	2	Ring	16
302.4700000000000	0	n/a	181483	KeyDown	41324	4	Index	16
302.8766666666667	0	n/a	181727	KeyDown	41324	4	Index	16
303.1933333333333	0	n/a	181917	KeyDown	41324	1	Little	16
303.5266666666667	0	n/a	182117	KeyDown	41324	3	Middle	16
303.7966666666667	0	n/a	182279	KeyDown	41324	2	Ring	16
303.9883333333333	0	n/a	182394	KeyDown	41324	4	Index	16
304.4216666666667	0	n/a	182654	KeyDown	41324	4	Index	16
304.6666666666667	0	n/a	182801	KeyDown	41324	1	Little	16
304.9166666666667	0	n/a	182951	KeyDown	41324	3	Middle	16
305.1200000000000	0	n/a	183073	KeyDown	41324	2	Ring	16
305.3516666666667	0	n/a	183212	KeyDown	41324	4	Index	16
305.7416666666667	0	n/a	183446	KeyDown	41324	4	Index	16
305.9616666666667	0	n/a	183578	KeyDown	41324	1	Little	16
306.2250000000000	0	n/a	183736	KeyDown	41324	3	Middle	16
306.4300000000000	0	n/a	183859	KeyDown	41324	2	Ring	16
306.6183333333333	0	n/a	183972	KeyDown	41324	4	Index	16
307.0433333333334	0	n/a	184227	KeyDown	41324	4	Index	16
307.2383333333333	0	n/a	184344	KeyDown	41324	1	Little	16
307.4966666666667	0	n/a	184499	KeyDown	41324	3	Middle	16
307.6850000000000	0	n/a	184612	KeyDown	41324	2	Ring	16
307.8966666666667	0	n/a	184739	KeyDown	41324	4	Index	16
308.3166666666667	0	n/a	184991	KeyDown	41324	4	Index	16
308.4933333333333	0	n/a	185097	KeyDown	41324	1	Little	16
308.7883333333334	0	n/a	185274	KeyDown	41324	3	Middle	16
309.0100000000000	0	n/a	185407	KeyDown	41324	2	Ring	16
309.1966666666667	0	n/a	185519	KeyDown	41324	4	Index	16
309.6216666666667	0	n/a	185774	KeyDown	41324	4	Index	16
309.8333333333334	0	n/a	185901	KeyDown	41324	1	Little	16
310.0750000000000	0	n/a	186046	KeyDown	41324	3	Middle	16
310.3033333333333	0	n/a	186183	KeyDown	41324	2	Ring	16
310.6533333333334	0	n/a	186393	KeyDown	41324	4	Index	16
310.6833333333333	0	n/a	186411	StopPractice	41324	n/a	n/a	16
310.6850000000000	0	n/a	186412	StartRest	XXXXX	n/a	n/a	16
320.7183333333334	0	n/a	192432	StopRest	XXXXX	n/a	n/a	16
320.7200000000000	0	UPPT001	192433	StartPractice	41324	n/a	n/a	17
321.2533333333333	0	n/a	192753	KeyDown	41324	4	Index	17
321.5516666666667	0	n/a	192932	KeyDown	41324	1	Little	17
321.8450000000000	0	n/a	193108	KeyDown	41324	3	Middle	17
322.0733333333334	0	n/a	193245	KeyDown	41324	2	Ring	17
322.2783333333334	0	n/a	193368	KeyDown	41324	4	Index	17
322.6883333333333	0	n/a	193614	KeyDown	41324	4	Index	17
322.9133333333334	0	n/a	193749	KeyDown	41324	1	Little	17
323.1700000000000	0	n/a	193903	KeyDown	41324	3	Middle	17
323.3750000000000	0	n/a	194026	KeyDown	41324	2	Ring	17
323.5716666666667	0	n/a	194144	KeyDown	41324	4	Index	17
324.0133333333334	0	n/a	194409	KeyDown	41324	4	Index	17
324.2300000000000	0	n/a	194539	KeyDown	41324	1	Little	17
324.4866666666667	0	n/a	194693	KeyDown	41324	3	Middle	17
324.6683333333334	0	n/a	194802	KeyDown	41324	2	Ring	17
324.9050000000000	0	n/a	194944	KeyDown	41324	4	Index	17
325.3550000000000	0	n/a	195214	KeyDown	41324	4	Index	17
325.5816666666667	0	n/a	195350	KeyDown	41324	1	Little	17
325.8450000000000	0	n/a	195508	KeyDown	41324	3	Middle	17
326.0633333333333	0	n/a	195639	KeyDown	41324	2	Ring	17
326.3133333333333	0	n/a	195789	KeyDown	41324	4	Index	17
326.9733333333334	0	n/a	196185	KeyDown	41324	1	Little	17
328.3166666666667	0	n/a	196991	KeyDown	41324	3	Middle	17
328.5283333333334	0	n/a	197118	KeyDown	41324	2	Ring	17
328.7433333333333	0	n/a	197247	KeyDown	41324	4	Index	17
329.1400000000000	0	n/a	197485	KeyDown	41324	4	Index	17
329.3833333333334	0	n/a	197631	KeyDown	41324	1	Little	17
329.7033333333334	0	n/a	197823	KeyDown	41324	3	Middle	17
329.9116666666667	0	n/a	197948	KeyDown	41324	2	Ring	17
330.1266666666667	0	n/a	198077	KeyDown	41324	4	Index	17
330.5216666666667	0	n/a	198314	KeyDown	41324	4	Index	17
330.7583333333334	0	n/a	198456	StopPractice	41324	n/a	n/a	17
330.7600000000000	0	n/a	198457	StartRest	XXXXX	n/a	n/a	17
340.7933333333334	0	n/a	204477	StopRest	XXXXX	n/a	n/a	17
340.7950000000000	0	UPPT001	204478	StartPractice	41324	n/a	n/a	18
341.3616666666667	0	n/a	204818	KeyDown	41324	4	Index	18
341.6433333333334	0	n/a	204987	KeyDown	41324	1	Little	18
341.8933333333334	0	n/a	205137	KeyDown	41324	3	Middle	18
342.1266666666667	0	n/a	205277	KeyDown	41324	2	Ring	18
342.3366666666667	0	n/a	205403	KeyDown	41324	4	Index	18
342.7133333333334	0	n/a	205629	KeyDown	41324	4	Index	18
342.9633333333334	0	n/a	205779	KeyDown	41324	1	Little	18
343.2266666666667	0	n/a	205937	KeyDown	41324	3	Middle	18
343.4816666666667	0	n/a	206090	KeyDown	41324	2	Ring	18
343.7033333333334	0	n/a	206223	KeyDown	41324	4	Index	18
344.1183333333333	0	n/a	206472	KeyDown	41324	4	Index	18
344.3833333333334	0	n/a	206631	KeyDown	41324	1	Little	18
344.6683333333334	0	n/a	206802	KeyDown	41324	3	Middle	18
344.8933333333334	0	n/a	206937	KeyDown	41324	2	Ring	18
345.0733333333334	0	n/a	207045	KeyDown	41324	4	Index	18
345.5483333333333	0	n/a	207330	KeyDown	41324	4	Index	18
345.8083333333333	0	n/a	207486	KeyDown	41324	1	Little	18
346.1183333333333	0	n/a	207672	KeyDown	41324	3	Middle	18
346.3550000000000	0	n/a	207814	KeyDown	41324	2	Ring	18
346.5683333333333	0	n/a	207942	KeyDown	41324	4	Index	18
347.0350000000000	0	n/a	208222	KeyDown	41324	4	Index	18
347.2683333333334	0	n/a	208362	KeyDown	41324	1	Little	18
347.5466666666667	0	n/a	208529	KeyDown	41324	3	Middle	18
347.7666666666667	0	n/a	208661	KeyDown	41324	2	Ring	18
347.9866666666667	0	n/a	208793	KeyDown	41324	4	Index	18
348.4050000000000	0	n/a	209044	KeyDown	41324	4	Index	18
348.6566666666667	0	n/a	209195	KeyDown	41324	1	Little	18
348.9083333333334	0	n/a	209346	KeyDown	41324	3	Middle	18
349.1433333333334	0	n/a	209487	KeyDown	41324	2	Ring	18
349.3700000000000	0	n/a	209623	KeyDown	41324	4	Index	18
349.7750000000000	0	n/a	209866	KeyDown	41324	4	Index	18
349.9916666666667	0	n/a	209996	KeyDown	41324	1	Little	18
350.2283333333334	0	n/a	210138	KeyDown	41324	3	Middle	18
350.4466666666667	0	n/a	210269	KeyDown	41324	2	Ring	18
350.6966666666667	0	n/a	210419	KeyDown	41324	4	Index	18
350.8333333333334	0	n/a	210501	StopPractice	41324	n/a	n/a	18
350.8350000000000	0	n/a	210502	StartRest	XXXXX	n/a	n/a	18
360.8666666666667	0	n/a	216521	StopRest	XXXXX	n/a	n/a	18
360.8683333333333	0	UPPT001	216522	StartPractice	41324	n/a	n/a	19
361.5450000000000	0	n/a	216928	KeyDown	41324	4	Index	19
361.8316666666667	0	n/a	217100	KeyDown	41324	1	Little	19
362.1300000000000	0	n/a	217279	KeyDown	41324	3	Middle	19
362.3916666666667	0	n/a	217436	KeyDown	41324	2	Ring	19
362.6866666666667	0	n/a	217613	KeyDown	41324	4	Index	19
363.0100000000000	0	n/a	217807	KeyDown	41324	4	Index	19
363.2800000000000	0	n/a	217969	KeyDown	41324	1	Little	19
363.5450000000000	0	n/a	218128	KeyDown	41324	3	Middle	19
363.7716666666667	0	n/a	218264	KeyDown	41324	2	Ring	19
364.0050000000000	0	n/a	218404	KeyDown	41324	4	Index	19
364.3216666666667	0	n/a	218594	KeyDown	41324	4	Index	19
364.5883333333334	0	n/a	218754	KeyDown	41324	1	Little	19
364.8500000000000	0	n/a	218911	KeyDown	41324	3	Middle	19
365.0633333333333	0	n/a	219039	KeyDown	41324	2	Ring	19
365.3000000000000	0	n/a	219181	KeyDown	41324	4	Index	19
365.6533333333334	0	n/a	219393	KeyDown	41324	4	Index	19
365.8850000000000	0	n/a	219532	KeyDown	41324	1	Little	19
366.1566666666667	0	n/a	219695	KeyDown	41324	3	Middle	19
366.3866666666667	0	n/a	219833	KeyDown	41324	2	Ring	19
366.6066666666667	0	n/a	219965	KeyDown	41324	4	Index	19
366.9500000000000	0	n/a	220171	KeyDown	41324	4	Index	19
367.2016666666667	0	n/a	220322	KeyDown	41324	1	Little	19
367.5450000000000	0	n/a	220528	KeyDown	41324	3	Middle	19
367.7650000000000	0	n/a	220660	KeyDown	41324	2	Ring	19
367.9850000000000	0	n/a	220792	KeyDown	41324	4	Index	19
368.3533333333334	0	n/a	221013	KeyDown	41324	4	Index	19
368.5800000000000	0	n/a	221149	KeyDown	41324	1	Little	19
368.8433333333334	0	n/a	221307	KeyDown	41324	3	Middle	19
369.0750000000000	0	n/a	221446	KeyDown	41324	2	Ring	19
369.2733333333334	0	n/a	221565	KeyDown	41324	4	Index	19
369.6716666666667	0	n/a	221804	KeyDown	41324	4	Index	19
369.8750000000000	0	n/a	221926	KeyDown	41324	1	Little	19
370.1250000000000	0	n/a	222076	KeyDown	41324	3	Middle	19
370.3350000000000	0	n/a	222202	KeyDown	41324	2	Ring	19
370.5266666666667	0	n/a	222317	KeyDown	41324	4	Index	19
370.9066666666667	0	n/a	222545	StopPractice	41324	n/a	n/a	19
370.9083333333334	0	n/a	222546	StartRest	XXXXX	n/a	n/a	19
380.9416666666667	0	n/a	228566	StopRest	XXXXX	n/a	n/a	19
380.9433333333334	0	UPPT001	228567	StartPractice	41324	n/a	n/a	20
381.5850000000000	0	n/a	228952	KeyDown	41324	4	Index	20
381.8750000000000	0	n/a	229126	KeyDown	41324	1	Little	20
382.1233333333333	0	n/a	229275	KeyDown	41324	3	Middle	20
382.4033333333334	0	n/a	229443	KeyDown	41324	2	Ring	20
382.6400000000000	0	n/a	229585	KeyDown	41324	4	Index	20
383.0100000000000	0	n/a	229807	KeyDown	41324	4	Index	20
383.2350000000000	0	n/a	229942	KeyDown	41324	1	Little	20
383.5016666666667	0	n/a	230102	KeyDown	41324	3	Middle	20
383.7116666666667	0	n/a	230228	KeyDown	41324	2	Ring	20
383.9366666666667	0	n/a	230363	KeyDown	41324	4	Index	20
384.3516666666667	0	n/a	230612	KeyDown	41324	4	Index	20
384.6366666666667	0	n/a	230783	KeyDown	41324	1	Little	20
384.9516666666667	0	n/a	230972	KeyDown	41324	3	Middle	20
385.1783333333333	0	n/a	231108	KeyDown	41324	2	Ring	20
385.4283333333333	0	n/a	231258	KeyDown	41324	4	Index	20
385.8766666666667	0	n/a	231527	KeyDown	41324	4	Index	20
386.1400000000000	0	n/a	231685	KeyDown	41324	1	Little	20
386.4683333333334	0	n/a	231882	KeyDown	41324	3	Middle	20
386.7050000000000	0	n/a	232024	KeyDown	41324	2	Ring	20
386.9750000000000	0	n/a	232186	KeyDown	41324	4	Index	20
387.3800000000001	0	n/a	232429	KeyDown	41324	4	Index	20
387.6200000000000	0	n/a	232573	KeyDown	41324	1	Little	20
387.9116666666667	0	n/a	232748	KeyDown	41324	3	Middle	20
388.1716666666667	0	n/a	232904	KeyDown	41324	2	Ring	20
388.3750000000000	0	n/a	233026	KeyDown	41324	4	Index	20
388.8400000000000	0	n/a	233305	KeyDown	41324	4	Index	20
389.0683333333334	0	n/a	233442	KeyDown	41324	1	Little	20
389.3300000000000	0	n/a	233599	KeyDown	41324	3	Middle	20
389.5566666666667	0	n/a	233735	KeyDown	41324	2	Ring	20
389.7550000000001	0	n/a	233854	KeyDown	41324	4	Index	20
390.2133333333334	0	n/a	234129	KeyDown	41324	4	Index	20
390.4216666666667	0	n/a	234254	KeyDown	41324	1	Little	20
390.7216666666667	0	n/a	234434	KeyDown	41324	3	Middle	20
390.9816666666667	0	n/a	234590	StopPractice	41324	n/a	n/a	20
390.9833333333333	0	n/a	234591	StartRest	XXXXX	n/a	n/a	20
401.0166666666667	0	n/a	240611	StopRest	XXXXX	n/a	n/a	20
401.0183333333334	0	UPPT001	240612	StartPractice	41324	n/a	n/a	21
401.8050000000000	0	n/a	241084	KeyDown	41324	4	Index	21
402.1066666666667	0	n/a	241265	KeyDown	41324	1	Little	21
402.3633333333333	0	n/a	241419	KeyDown	41324	3	Middle	21
402.6116666666667	0	n/a	241568	KeyDown	41324	2	Ring	21
402.8616666666667	0	n/a	241718	KeyDown	41324	4	Index	21
403.1950000000001	0	n/a	241918	KeyDown	41324	4	Index	21
403.4333333333333	0	n/a	242061	KeyDown	41324	1	Little	21
403.7050000000000	0	n/a	242224	KeyDown	41324	3	Middle	21
403.9666666666667	0	n/a	242381	KeyDown	41324	2	Ring	21
404.2300000000000	0	n/a	242539	KeyDown	41324	4	Index	21
404.5500000000000	0	n/a	242731	KeyDown	41324	4	Index	21
404.7983333333333	0	n/a	242880	KeyDown	41324	1	Little	21
405.0683333333334	0	n/a	243042	KeyDown	41324	3	Middle	21
405.3650000000000	0	n/a	243220	KeyDown	41324	2	Ring	21
405.7000000000000	0	n/a	243421	KeyDown	41324	4	Index	21
406.0200000000000	0	n/a	243613	KeyDown	41324	4	Index	21
406.2333333333333	0	n/a	243741	KeyDown	41324	1	Little	21
406.5016666666667	0	n/a	243902	KeyDown	41324	3	Middle	21
406.7666666666667	0	n/a	244061	KeyDown	41324	2	Ring	21
406.9966666666667	0	n/a	244199	KeyDown	41324	4	Index	21
407.3016666666667	0	n/a	244382	KeyDown	41324	4	Index	21
407.5233333333334	0	n/a	244515	KeyDown	41324	1	Little	21
408.1750000000000	0	n/a	244906	KeyDown	41324	3	Middle	21
408.4050000000000	0	n/a	245044	KeyDown	41324	2	Ring	21
408.6266666666667	0	n/a	245177	KeyDown	41324	4	Index	21
408.9650000000000	0	n/a	245380	KeyDown	41324	4	Index	21
409.1900000000001	0	n/a	245515	KeyDown	41324	1	Little	21
409.4566666666667	0	n/a	245675	KeyDown	41324	3	Middle	21
409.6800000000000	0	n/a	245809	KeyDown	41324	2	Ring	21
409.8850000000000	0	n/a	245932	KeyDown	41324	4	Index	21
410.1866666666667	0	n/a	246113	KeyDown	41324	4	Index	21
410.4433333333334	0	n/a	246267	KeyDown	41324	1	Little	21
410.7050000000000	0	n/a	246424	KeyDown	41324	3	Middle	21
410.9066666666667	0	n/a	246545	KeyDown	41324	2	Ring	21
411.0566666666667	0	n/a	246635	StopPractice	41324	n/a	n/a	21
411.0583333333333	0	n/a	246636	StartRest	XXXXX	n/a	n/a	21
421.0916666666667	0	n/a	252656	StopRest	XXXXX	n/a	n/a	21
421.0933333333334	0	UPPT001	252657	StartPractice	41324	n/a	n/a	22
421.6716666666667	0	n/a	253004	KeyDown	41324	4	Index	22
421.9616666666667	0	n/a	253178	KeyDown	41324	1	Little	22
422.2550000000001	0	n/a	253354	KeyDown	41324	3	Middle	22
422.4816666666667	0	n/a	253490	KeyDown	41324	2	Ring	22
422.7416666666667	0	n/a	253646	KeyDown	41324	4	Index	22
423.0700000000001	0	n/a	253843	KeyDown	41324	4	Index	22
423.3400000000000	0	n/a	254005	KeyDown	41324	1	Little	22
423.6716666666667	0	n/a	254204	KeyDown	41324	3	Middle	22
423.9416666666667	0	n/a	254366	KeyDown	41324	2	Ring	22
424.1866666666667	0	n/a	254513	KeyDown	41324	4	Index	22
424.4950000000000	0	n/a	254698	KeyDown	41324	4	Index	22
424.7600000000000	0	n/a	254857	KeyDown	41324	1	Little	22
425.0766666666667	0	n/a	255047	KeyDown	41324	3	Middle	22
425.3450000000000	0	n/a	255208	KeyDown	41324	2	Ring	22
425.6550000000000	0	n/a	255394	KeyDown	41324	4	Index	22
425.9666666666667	0	n/a	255581	KeyDown	41324	4	Index	22
426.2050000000000	0	n/a	255724	KeyDown	41324	1	Little	22
426.5316666666667	0	n/a	255920	KeyDown	41324	3	Middle	22
426.8000000000000	0	n/a	256081	KeyDown	41324	2	Ring	22
427.0483333333333	0	n/a	256230	KeyDown	41324	4	Index	22
427.3866666666667	0	n/a	256433	KeyDown	41324	4	Index	22
427.6133333333333	0	n/a	256569	KeyDown	41324	1	Little	22
427.9333333333333	0	n/a	256761	KeyDown	41324	3	Middle	22
428.1883333333333	0	n/a	256914	KeyDown	41324	2	Ring	22
428.4566666666667	0	n/a	257075	KeyDown	41324	4	Index	22
428.7850000000000	0	n/a	257272	KeyDown	41324	4	Index	22
429.0183333333334	0	n/a	257412	KeyDown	41324	1	Little	22
429.4016666666667	0	n/a	257642	KeyDown	41324	3	Middle	22
429.6333333333334	0	n/a	257781	KeyDown	41324	2	Ring	22
429.8733333333333	0	n/a	257925	KeyDown	41324	4	Index	22
430.1950000000001	0	n/a	258118	KeyDown	41324	4	Index	22
430.4616666666667	0	n/a	258278	KeyDown	41324	1	Little	22
430.7200000000000	0	n/a	258433	KeyDown	41324	3	Middle	22
430.9616666666667	0	n/a	258578	KeyDown	41324	2	Ring	22
431.1316666666667	0	n/a	258680	StopPractice	41324	n/a	n/a	22
431.1333333333334	0	n/a	258681	StartRest	XXXXX	n/a	n/a	22
441.1666666666667	0	n/a	264701	StopRest	XXXXX	n/a	n/a	22
441.1683333333334	0	UPPT001	264702	StartPractice	41324	n/a	n/a	23
441.6866666666667	0	n/a	265013	KeyDown	41324	4	Index	23
441.9600000000000	0	n/a	265177	KeyDown	41324	1	Little	23
442.2250000000000	0	n/a	265336	KeyDown	41324	3	Middle	23
442.4666666666667	0	n/a	265481	KeyDown	41324	2	Ring	23
442.7150000000000	0	n/a	265630	KeyDown	41324	4	Index	23
443.0300000000000	0	n/a	265819	KeyDown	41324	4	Index	23
443.2750000000000	0	n/a	265966	KeyDown	41324	1	Little	23
443.5400000000000	0	n/a	266125	KeyDown	41324	3	Middle	23
443.8000000000000	0	n/a	266281	KeyDown	41324	2	Ring	23
444.0783333333334	0	n/a	266448	KeyDown	41324	4	Index	23
444.4100000000000	0	n/a	266647	KeyDown	41324	4	Index	23
444.6666666666667	0	n/a	266801	KeyDown	41324	1	Little	23
444.9766666666667	0	n/a	266987	KeyDown	41324	3	Middle	23
445.2316666666667	0	n/a	267140	KeyDown	41324	2	Ring	23
445.4800000000000	0	n/a	267289	KeyDown	41324	4	Index	23
445.7783333333334	0	n/a	267468	KeyDown	41324	4	Index	23
446.0166666666667	0	n/a	267611	KeyDown	41324	1	Little	23
446.3166666666667	0	n/a	267791	KeyDown	41324	3	Middle	23
446.5450000000000	0	n/a	267928	KeyDown	41324	2	Ring	23
446.7816666666667	0	n/a	268070	KeyDown	41324	4	Index	23
447.1016666666667	0	n/a	268262	KeyDown	41324	4	Index	23
447.3500000000000	0	n/a	268411	KeyDown	41324	1	Little	23
447.6450000000000	0	n/a	268588	KeyDown	41324	3	Middle	23
447.8716666666667	0	n/a	268724	KeyDown	41324	2	Ring	23
448.1200000000000	0	n/a	268873	KeyDown	41324	4	Index	23
448.4200000000000	0	n/a	269053	KeyDown	41324	4	Index	23
448.6900000000001	0	n/a	269215	KeyDown	41324	1	Little	23
448.9716666666667	0	n/a	269384	KeyDown	41324	3	Middle	23
449.2166666666667	0	n/a	269531	KeyDown	41324	2	Ring	23
449.4300000000000	0	n/a	269659	KeyDown	41324	4	Index	23
449.7366666666667	0	n/a	269843	KeyDown	41324	4	Index	23
449.9566666666667	0	n/a	269975	KeyDown	41324	1	Little	23
450.2400000000000	0	n/a	270145	KeyDown	41324	3	Middle	23
450.4783333333334	0	n/a	270288	KeyDown	41324	2	Ring	23
450.9316666666667	0	n/a	270560	KeyDown	41324	4	Index	23
451.2066666666667	0	n/a	270725	StopPractice	41324	n/a	n/a	23
451.2083333333334	0	n/a	270726	StartRest	XXXXX	n/a	n/a	23
461.2416666666667	0	n/a	276746	StopRest	XXXXX	n/a	n/a	23
461.2433333333333	0	UPPT001	276747	StartPractice	41324	n/a	n/a	24
461.8550000000000	0	n/a	277114	KeyDown	41324	4	Index	24
462.1850000000000	0	n/a	277312	KeyDown	41324	1	Little	24
462.5450000000000	0	n/a	277528	KeyDown	41324	3	Middle	24
462.7783333333334	0	n/a	277668	KeyDown	41324	2	Ring	24
463.0333333333334	0	n/a	277821	KeyDown	41324	4	Index	24
463.3350000000000	0	n/a	278002	KeyDown	41324	4	Index	24
463.5733333333334	0	n/a	278145	KeyDown	41324	1	Little	24
463.8750000000001	0	n/a	278326	KeyDown	41324	3	Middle	24
464.1316666666667	0	n/a	278480	KeyDown	41324	2	Ring	24
464.4166666666667	0	n/a	278651	KeyDown	41324	4	Index	24
464.7600000000000	0	n/a	278857	KeyDown	41324	4	Index	24
464.9933333333333	0	n/a	278997	KeyDown	41324	1	Little	24
465.2900000000000	0	n/a	279175	KeyDown	41324	3	Middle	24
465.5800000000000	0	n/a	279349	KeyDown	41324	2	Ring	24
465.8200000000001	0	n/a	279493	KeyDown	41324	4	Index	24
466.1383333333334	0	n/a	279684	KeyDown	41324	4	Index	24
466.4066666666667	0	n/a	279845	KeyDown	41324	1	Little	24
466.6850000000000	0	n/a	280012	KeyDown	41324	3	Middle	24
466.9400000000001	0	n/a	280165	KeyDown	41324	2	Ring	24
467.2200000000000	0	n/a	280333	KeyDown	41324	4	Index	24
467.5266666666667	0	n/a	280517	KeyDown	41324	4	Index	24
467.8083333333333	0	n/a	280686	KeyDown	41324	1	Little	24
468.0783333333334	0	n/a	280848	KeyDown	41324	3	Middle	24
468.3300000000000	0	n/a	280999	KeyDown	41324	2	Ring	24
468.6050000000000	0	n/a	281164	KeyDown	41324	4	Index	24
468.8916666666667	0	n/a	281336	KeyDown	41324	4	Index	24
469.1300000000001	0	n/a	281479	KeyDown	41324	1	Little	24
469.4116666666667	0	n/a	281648	KeyDown	41324	3	Middle	24
469.6683333333334	0	n/a	281802	KeyDown	41324	2	Ring	24
469.9800000000000	0	n/a	281989	KeyDown	41324	4	Index	24
470.2866666666667	0	n/a	282173	KeyDown	41324	4	Index	24
470.5700000000001	0	n/a	282343	KeyDown	41324	1	Little	24
470.9100000000000	0	n/a	282547	KeyDown	41324	3	Middle	24
471.1783333333333	0	n/a	282708	KeyDown	41324	2	Ring	24
471.2816666666667	0	n/a	282770	StopPractice	41324	n/a	n/a	24
471.2833333333334	0	n/a	282771	StartRest	XXXXX	n/a	n/a	24
481.3166666666667	0	n/a	288791	StopRest	XXXXX	n/a	n/a	24
481.3183333333334	0	UPPT001	288792	StartPractice	41324	n/a	n/a	25
481.7466666666667	0	n/a	289049	KeyDown	41324	4	Index	25
481.9950000000000	0	n/a	289198	KeyDown	41324	1	Little	25
482.2500000000001	0	n/a	289351	KeyDown	41324	3	Middle	25
482.4916666666667	0	n/a	289496	KeyDown	41324	2	Ring	25
482.7433333333333	0	n/a	289647	KeyDown	41324	4	Index	25
483.0516666666667	0	n/a	289832	KeyDown	41324	4	Index	25
483.3050000000000	0	n/a	289984	KeyDown	41324	1	Little	25
483.5850000000000	0	n/a	290152	KeyDown	41324	3	Middle	25
483.8666666666667	0	n/a	290321	KeyDown	41324	2	Ring	25
484.1100000000000	0	n/a	290467	KeyDown	41324	4	Index	25
484.4350000000001	0	n/a	290662	KeyDown	41324	4	Index	25
484.6916666666667	0	n/a	290816	KeyDown	41324	1	Little	25
484.9600000000000	0	n/a	290977	KeyDown	41324	3	Middle	25
485.2300000000000	0	n/a	291139	KeyDown	41324	2	Ring	25
485.4716666666667	0	n/a	291284	KeyDown	41324	4	Index	25
485.7650000000000	0	n/a	291460	KeyDown	41324	4	Index	25
486.0300000000000	0	n/a	291619	KeyDown	41324	1	Little	25
486.3216666666667	0	n/a	291794	KeyDown	41324	3	Middle	25
486.5650000000001	0	n/a	291940	KeyDown	41324	2	Ring	25
486.8050000000000	0	n/a	292084	KeyDown	41324	4	Index	25
487.0950000000000	0	n/a	292258	KeyDown	41324	4	Index	25
487.3516666666667	0	n/a	292412	KeyDown	41324	1	Little	25
487.6350000000000	0	n/a	292582	KeyDown	41324	3	Middle	25
487.9333333333333	0	n/a	292761	KeyDown	41324	2	Ring	25
488.1866666666667	0	n/a	292913	KeyDown	41324	4	Index	25
488.5750000000000	0	n/a	293146	KeyDown	41324	4	Index	25
488.8000000000000	0	n/a	293281	KeyDown	41324	1	Little	25
489.0700000000001	0	n/a	293443	KeyDown	41324	3	Middle	25
489.3200000000001	0	n/a	293593	KeyDown	41324	2	Ring	25
489.5466666666667	0	n/a	293729	KeyDown	41324	4	Index	25
489.8316666666667	0	n/a	293900	KeyDown	41324	4	Index	25
490.0933333333334	0	n/a	294057	KeyDown	41324	1	Little	25
490.3600000000000	0	n/a	294217	KeyDown	41324	3	Middle	25
490.6283333333334	0	n/a	294378	KeyDown	41324	2	Ring	25
490.9816666666667	0	n/a	294590	KeyDown	41324	4	Index	25
491.2316666666667	0	n/a	294740	KeyDown	41324	4	Index	25
491.3566666666667	0	n/a	294815	StopPractice	41324	n/a	n/a	25
491.3583333333333	0	n/a	294816	StartRest	XXXXX	n/a	n/a	25
501.3916666666667	0	n/a	300836	StopRest	XXXXX	n/a	n/a	25
501.3933333333334	0	UPPT001	300837	StartPractice	41324	n/a	n/a	26
501.8983333333334	0	n/a	301140	KeyDown	41324	4	Index	26
502.1833333333334	0	n/a	301311	KeyDown	41324	1	Little	26
502.4450000000001	0	n/a	301468	KeyDown	41324	3	Middle	26
502.6900000000001	0	n/a	301615	KeyDown	41324	2	Ring	26
502.9383333333334	0	n/a	301764	KeyDown	41324	4	Index	26
503.2166666666667	0	n/a	301931	KeyDown	41324	4	Index	26
503.4666666666667	0	n/a	302081	KeyDown	41324	1	Little	26
503.7400000000000	0	n/a	302245	KeyDown	41324	3	Middle	26
503.9966666666667	0	n/a	302399	KeyDown	41324	2	Ring	26
504.2300000000000	0	n/a	302539	KeyDown	41324	4	Index	26
504.5050000000001	0	n/a	302704	KeyDown	41324	4	Index	26
504.7516666666667	0	n/a	302852	KeyDown	41324	1	Little	26
505.0166666666667	0	n/a	303011	KeyDown	41324	3	Middle	26
505.2583333333334	0	n/a	303156	KeyDown	41324	2	Ring	26
505.4900000000000	0	n/a	303295	KeyDown	41324	4	Index	26
505.7700000000000	0	n/a	303463	KeyDown	41324	4	Index	26
506.0283333333334	0	n/a	303618	KeyDown	41324	1	Little	26
506.2883333333334	0	n/a	303774	KeyDown	41324	3	Middle	26
506.5416666666667	0	n/a	303926	KeyDown	41324	2	Ring	26
506.8366666666667	0	n/a	304103	KeyDown	41324	4	Index	26
507.1566666666667	0	n/a	304295	KeyDown	41324	4	Index	26
507.4166666666667	0	n/a	304451	KeyDown	41324	1	Little	26
507.6750000000000	0	n/a	304606	KeyDown	41324	3	Middle	26
507.9366666666667	0	n/a	304763	KeyDown	41324	2	Ring	26
508.1733333333333	0	n/a	304905	KeyDown	41324	4	Index	26
508.4766666666667	0	n/a	305087	KeyDown	41324	4	Index	26
508.7066666666667	0	n/a	305225	KeyDown	41324	1	Little	26
508.9866666666667	0	n/a	305393	KeyDown	41324	3	Middle	26
509.2550000000001	0	n/a	305554	KeyDown	41324	2	Ring	26
509.5016666666667	0	n/a	305702	KeyDown	41324	4	Index	26
509.7600000000000	0	n/a	305857	KeyDown	41324	4	Index	26
510.0100000000000	0	n/a	306007	KeyDown	41324	1	Little	26
510.2800000000000	0	n/a	306169	KeyDown	41324	3	Middle	26
510.5200000000000	0	n/a	306313	KeyDown	41324	2	Ring	26
510.7433333333333	0	n/a	306447	KeyDown	41324	4	Index	26
511.0016666666667	0	n/a	306602	KeyDown	41324	4	Index	26
511.2216666666667	0	n/a	306734	KeyDown	41324	1	Little	26
511.4316666666667	0	n/a	306860	StopPractice	41324	n/a	n/a	26
511.4333333333334	0	n/a	306861	StartRest	XXXXX	n/a	n/a	26
521.4666666666667	0	n/a	312881	StopRest	XXXXX	n/a	n/a	26
521.4683333333334	0	UPPT001	312882	StartPractice	41324	n/a	n/a	27
521.9033333333334	0	n/a	313143	KeyDown	41324	4	Index	27
522.1500000000000	0	n/a	313291	KeyDown	41324	1	Little	27
522.4183333333334	0	n/a	313452	KeyDown	41324	3	Middle	27
522.6400000000000	0	n/a	313585	KeyDown	41324	2	Ring	27
522.8816666666667	0	n/a	313730	KeyDown	41324	4	Index	27
523.1633333333334	0	n/a	313899	KeyDown	41324	4	Index	27
523.4100000000001	0	n/a	314047	KeyDown	41324	1	Little	27
523.6600000000001	0	n/a	314197	KeyDown	41324	3	Middle	27
523.8883333333333	0	n/a	314334	KeyDown	41324	2	Ring	27
524.1266666666667	0	n/a	314477	KeyDown	41324	4	Index	27
524.4000000000000	0	n/a	314641	KeyDown	41324	4	Index	27
524.6616666666667	0	n/a	314798	KeyDown	41324	1	Little	27
524.9216666666667	0	n/a	314954	KeyDown	41324	3	Middle	27
525.1733333333334	0	n/a	315105	KeyDown	41324	2	Ring	27
525.4066666666668	0	n/a	315245	KeyDown	41324	4	Index	27
525.7050000000000	0	n/a	315424	KeyDown	41324	4	Index	27
525.9716666666667	0	n/a	315584	KeyDown	41324	1	Little	27
526.2333333333333	0	n/a	315741	KeyDown	41324	3	Middle	27
526.4883333333333	0	n/a	315894	KeyDown	41324	2	Ring	27
527.1150000000000	0	n/a	316270	KeyDown	41324	4	Index	27
527.4016666666668	0	n/a	316442	KeyDown	41324	4	Index	27
527.6200000000000	0	n/a	316573	KeyDown	41324	1	Little	27
527.8966666666666	0	n/a	316739	KeyDown	41324	3	Middle	27
528.1500000000000	0	n/a	316891	KeyDown	41324	2	Ring	27
528.3850000000000	0	n/a	317032	KeyDown	41324	4	Index	27
528.6466666666666	0	n/a	317189	KeyDown	41324	4	Index	27
528.8816666666667	0	n/a	317330	KeyDown	41324	1	Little	27
529.1383333333333	0	n/a	317484	KeyDown	41324	3	Middle	27
529.4166666666667	0	n/a	317651	KeyDown	41324	2	Ring	27
529.6316666666667	0	n/a	317780	KeyDown	41324	4	Index	27
529.9216666666667	0	n/a	317954	KeyDown	41324	4	Index	27
530.1866666666667	0	n/a	318113	KeyDown	41324	1	Little	27
530.6000000000000	0	n/a	318361	KeyDown	41324	3	Middle	27
530.8266666666667	0	n/a	318497	KeyDown	41324	2	Ring	27
531.0583333333334	0	n/a	318636	KeyDown	41324	4	Index	27
531.3516666666667	0	n/a	318812	KeyDown	41324	4	Index	27
531.5066666666667	0	n/a	318905	StopPractice	41324	n/a	n/a	27
531.5083333333333	0	n/a	318906	StartRest	XXXXX	n/a	n/a	27
541.5416666666667	0	n/a	324926	StopRest	XXXXX	n/a	n/a	27
541.5433333333334	0	UPPT001	324927	StartPractice	41324	n/a	n/a	28
542.0816666666667	0	n/a	325250	KeyDown	41324	4	Index	28
542.3616666666667	0	n/a	325418	KeyDown	41324	1	Little	28
542.6416666666667	0	n/a	325586	KeyDown	41324	3	Middle	28
542.9000000000001	0	n/a	325741	KeyDown	41324	2	Ring	28
543.1383333333333	0	n/a	325884	KeyDown	41324	4	Index	28
543.4416666666667	0	n/a	326066	KeyDown	41324	4	Index	28
543.6483333333333	0	n/a	326190	KeyDown	41324	1	Little	28
543.9250000000001	0	n/a	326356	KeyDown	41324	3	Middle	28
544.1816666666667	0	n/a	326510	KeyDown	41324	2	Ring	28
544.4350000000001	0	n/a	326662	KeyDown	41324	4	Index	28
544.7083333333334	0	n/a	326826	KeyDown	41324	4	Index	28
544.9200000000001	0	n/a	326953	KeyDown	41324	1	Little	28
545.1900000000001	0	n/a	327115	KeyDown	41324	3	Middle	28
545.4350000000001	0	n/a	327262	KeyDown	41324	2	Ring	28
545.6700000000001	0	n/a	327403	KeyDown	41324	4	Index	28
545.9850000000000	0	n/a	327592	KeyDown	41324	4	Index	28
546.1983333333334	0	n/a	327720	KeyDown	41324	1	Little	28
546.4766666666667	0	n/a	327887	KeyDown	41324	3	Middle	28
546.7283333333334	0	n/a	328038	KeyDown	41324	2	Ring	28
546.9750000000000	0	n/a	328186	KeyDown	41324	4	Index	28
547.2466666666667	0	n/a	328349	KeyDown	41324	4	Index	28
547.4600000000000	0	n/a	328477	KeyDown	41324	1	Little	28
547.7466666666667	0	n/a	328649	KeyDown	41324	3	Middle	28
547.9966666666667	0	n/a	328799	KeyDown	41324	2	Ring	28
548.4033333333334	0	n/a	329043	KeyDown	41324	4	Index	28
548.6550000000001	0	n/a	329194	KeyDown	41324	4	Index	28
548.8516666666667	0	n/a	329312	KeyDown	41324	1	Little	28
549.1350000000000	0	n/a	329482	KeyDown	41324	3	Middle	28
549.3916666666667	0	n/a	329636	KeyDown	41324	2	Ring	28
549.6316666666667	0	n/a	329780	KeyDown	41324	4	Index	28
549.8950000000000	0	n/a	329938	KeyDown	41324	4	Index	28
550.1483333333333	0	n/a	330090	KeyDown	41324	1	Little	28
550.4166666666667	0	n/a	330251	KeyDown	41324	3	Middle	28
550.6566666666668	0	n/a	330395	KeyDown	41324	2	Ring	28
550.8450000000000	0	n/a	330508	KeyDown	41324	4	Index	28
551.1050000000000	0	n/a	330664	KeyDown	41324	4	Index	28
551.2966666666667	0	n/a	330779	KeyDown	41324	1	Little	28
551.5816666666667	0	n/a	330950	StopPractice	41324	n/a	n/a	28
551.5833333333334	0	n/a	330951	StartRest	XXXXX	n/a	n/a	28
561.6166666666667	0	n/a	336971	StopRest	XXXXX	n/a	n/a	28
561.6183333333333	0	UPPT001	336972	StartPractice	41324	n/a	n/a	29
562.0850000000000	0	n/a	337252	KeyDown	41324	4	Index	29
562.3716666666667	0	n/a	337424	KeyDown	41324	1	Little	29
562.6116666666667	0	n/a	337568	KeyDown	41324	3	Middle	29
562.8650000000000	0	n/a	337720	KeyDown	41324	2	Ring	29
563.0833333333334	0	n/a	337851	KeyDown	41324	4	Index	29
563.3566666666667	0	n/a	338015	KeyDown	41324	4	Index	29
563.5466666666667	0	n/a	338129	KeyDown	41324	1	Little	29
563.8366666666667	0	n/a	338303	KeyDown	41324	3	Middle	29
564.0550000000001	0	n/a	338434	KeyDown	41324	2	Ring	29
564.3000000000001	0	n/a	338581	KeyDown	41324	4	Index	29
564.5466666666667	0	n/a	338729	KeyDown	41324	4	Index	29
564.7783333333334	0	n/a	338868	KeyDown	41324	1	Little	29
565.0333333333334	0	n/a	339021	KeyDown	41324	3	Middle	29
565.2883333333334	0	n/a	339174	KeyDown	41324	2	Ring	29
565.5283333333334	0	n/a	339318	KeyDown	41324	4	Index	29
565.7883333333334	0	n/a	339474	KeyDown	41324	4	Index	29
566.0133333333333	0	n/a	339609	KeyDown	41324	1	Little	29
566.2566666666667	0	n/a	339755	KeyDown	41324	3	Middle	29
566.4883333333333	0	n/a	339894	KeyDown	41324	2	Ring	29
566.7150000000000	0	n/a	340030	KeyDown	41324	4	Index	29
566.9883333333333	0	n/a	340194	KeyDown	41324	4	Index	29
567.2016666666667	0	n/a	340322	KeyDown	41324	1	Little	29
567.4500000000000	0	n/a	340471	KeyDown	41324	3	Middle	29
567.6900000000001	0	n/a	340615	KeyDown	41324	2	Ring	29
567.9700000000000	0	n/a	340783	KeyDown	41324	4	Index	29
568.2016666666667	0	n/a	340922	KeyDown	41324	4	Index	29
568.4266666666667	0	n/a	341057	KeyDown	41324	1	Little	29
568.6800000000001	0	n/a	341209	KeyDown	41324	3	Middle	29
568.9250000000001	0	n/a	341356	KeyDown	41324	2	Ring	29
569.4150000000001	0	n/a	341650	KeyDown	41324	4	Index	29
569.6466666666666	0	n/a	341789	KeyDown	41324	4	Index	29
569.8566666666667	0	n/a	341915	KeyDown	41324	1	Little	29
570.0966666666667	0	n/a	342059	KeyDown	41324	3	Middle	29
570.3600000000000	0	n/a	342217	KeyDown	41324	2	Ring	29
570.9866666666667	0	n/a	342593	KeyDown	41324	4	Index	29
571.2333333333333	0	n/a	342741	KeyDown	41324	4	Index	29
571.6566666666668	0	n/a	342995	StopPractice	41324	n/a	n/a	29
571.6583333333334	0	n/a	342996	StartRest	XXXXX	n/a	n/a	29
581.6900000000001	0	n/a	349015	StopRest	XXXXX	n/a	n/a	29
581.6916666666667	0	UPPT001	349016	StartPractice	41324	n/a	n/a	30
582.1300000000000	0	n/a	349279	KeyDown	41324	4	Index	30
582.4733333333334	0	n/a	349485	KeyDown	41324	1	Little	30
582.7250000000000	0	n/a	349636	KeyDown	41324	3	Middle	30
582.9783333333334	0	n/a	349788	KeyDown	41324	2	Ring	30
583.2483333333333	0	n/a	349950	KeyDown	41324	4	Index	30
583.5633333333334	0	n/a	350139	KeyDown	41324	4	Index	30
583.8350000000000	0	n/a	350302	KeyDown	41324	1	Little	30
584.0883333333334	0	n/a	350454	KeyDown	41324	3	Middle	30
584.3483333333334	0	n/a	350610	KeyDown	41324	2	Ring	30
584.6450000000000	0	n/a	350788	KeyDown	41324	4	Index	30
584.9300000000001	0	n/a	350959	KeyDown	41324	4	Index	30
585.2033333333334	0	n/a	351123	KeyDown	41324	1	Little	30
585.5183333333333	0	n/a	351312	KeyDown	41324	3	Middle	30
585.7683333333333	0	n/a	351462	KeyDown	41324	2	Ring	30
586.0333333333334	0	n/a	351621	KeyDown	41324	4	Index	30
586.3783333333333	0	n/a	351828	KeyDown	41324	4	Index	30
586.6783333333334	0	n/a	352008	KeyDown	41324	1	Little	30
586.9133333333334	0	n/a	352149	KeyDown	41324	3	Middle	30
587.1750000000001	0	n/a	352306	KeyDown	41324	2	Ring	30
587.4650000000000	0	n/a	352480	KeyDown	41324	4	Index	30
587.7433333333333	0	n/a	352647	KeyDown	41324	4	Index	30
588.0250000000001	0	n/a	352816	KeyDown	41324	1	Little	30
588.3250000000000	0	n/a	352996	KeyDown	41324	3	Middle	30
588.6350000000000	0	n/a	353182	KeyDown	41324	2	Ring	30
588.9066666666668	0	n/a	353345	KeyDown	41324	4	Index	30
589.2250000000000	0	n/a	353536	KeyDown	41324	4	Index	30
589.5233333333334	0	n/a	353715	KeyDown	41324	1	Little	30
589.7600000000000	0	n/a	353857	KeyDown	41324	3	Middle	30
590.0183333333333	0	n/a	354012	KeyDown	41324	2	Ring	30
590.2950000000001	0	n/a	354178	KeyDown	41324	4	Index	30
590.6133333333333	0	n/a	354369	KeyDown	41324	4	Index	30
590.8850000000000	0	n/a	354532	KeyDown	41324	1	Little	30
591.1850000000001	0	n/a	354712	KeyDown	41324	3	Middle	30
591.4633333333334	0	n/a	354879	KeyDown	41324	2	Ring	30
591.7300000000000	0	n/a	355039	StopPractice	41324	n/a	n/a	30
591.7316666666667	0	n/a	355040	StartRest	XXXXX	n/a	n/a	30
601.7650000000000	0	n/a	361060	StopRest	XXXXX	n/a	n/a	30
601.7666666666667	0	UPPT001	361061	StartPractice	41324	n/a	n/a	31
602.3266666666667	0	n/a	361397	KeyDown	41324	4	Index	31
602.6416666666667	0	n/a	361586	KeyDown	41324	1	Little	31
602.9233333333334	0	n/a	361755	KeyDown	41324	3	Middle	31
603.2033333333334	0	n/a	361923	KeyDown	41324	2	Ring	31
603.5100000000000	0	n/a	362107	KeyDown	41324	4	Index	31
603.8700000000000	0	n/a	362323	KeyDown	41324	4	Index	31
604.0800000000000	0	n/a	362449	KeyDown	41324	1	Little	31
604.3633333333333	0	n/a	362619	KeyDown	41324	3	Middle	31
604.6133333333333	0	n/a	362769	KeyDown	41324	2	Ring	31
604.9000000000001	0	n/a	362941	KeyDown	41324	4	Index	31
605.2350000000000	0	n/a	363142	KeyDown	41324	4	Index	31
605.5000000000000	0	n/a	363301	KeyDown	41324	1	Little	31
605.8083333333334	0	n/a	363486	KeyDown	41324	3	Middle	31
606.0883333333334	0	n/a	363654	KeyDown	41324	2	Ring	31
606.4433333333334	0	n/a	363867	KeyDown	41324	4	Index	31
606.7783333333334	0	n/a	364068	KeyDown	41324	4	Index	31
607.2750000000001	0	n/a	364366	KeyDown	41324	1	Little	31
607.6833333333334	0	n/a	364611	KeyDown	41324	3	Middle	31
607.9783333333334	0	n/a	364788	KeyDown	41324	2	Ring	31
608.3483333333334	0	n/a	365010	KeyDown	41324	4	Index	31
608.6633333333334	0	n/a	365199	KeyDown	41324	4	Index	31
609.0433333333334	0	n/a	365427	KeyDown	41324	1	Little	31
609.3533333333334	0	n/a	365613	KeyDown	41324	3	Middle	31
609.6250000000000	0	n/a	365776	KeyDown	41324	2	Ring	31
609.9233333333334	0	n/a	365955	KeyDown	41324	4	Index	31
610.2533333333333	0	n/a	366153	KeyDown	41324	4	Index	31
610.5300000000001	0	n/a	366319	KeyDown	41324	1	Little	31
610.8333333333334	0	n/a	366501	KeyDown	41324	3	Middle	31
611.1300000000000	0	n/a	366679	KeyDown	41324	2	Ring	31
611.4083333333334	0	n/a	366846	KeyDown	41324	4	Index	31
611.7400000000000	0	n/a	367045	KeyDown	41324	4	Index	31
611.8050000000001	0	n/a	367084	StopPractice	41324	n/a	n/a	31
611.8066666666667	0	n/a	367085	StartRest	XXXXX	n/a	n/a	31
621.8400000000000	0	n/a	373105	StopRest	XXXXX	n/a	n/a	31
621.8416666666667	0	UPPT001	373106	StartPractice	41324	n/a	n/a	32
622.4316666666667	0	n/a	373460	KeyDown	41324	4	Index	32
622.6916666666667	0	n/a	373616	KeyDown	41324	1	Little	32
622.9233333333334	0	n/a	373755	KeyDown	41324	3	Middle	32
623.1100000000000	0	n/a	373867	KeyDown	41324	2	Ring	32
623.3200000000001	0	n/a	373993	KeyDown	41324	4	Index	32
623.7100000000000	0	n/a	374227	KeyDown	41324	4	Index	32
623.9550000000000	0	n/a	374374	KeyDown	41324	1	Little	32
624.1850000000001	0	n/a	374512	KeyDown	41324	3	Middle	32
624.4183333333334	0	n/a	374652	KeyDown	41324	2	Ring	32
624.6866666666667	0	n/a	374813	KeyDown	41324	4	Index	32
625.0000000000000	0	n/a	375001	KeyDown	41324	4	Index	32
625.4350000000001	0	n/a	375262	KeyDown	41324	1	Little	32
625.7533333333333	0	n/a	375453	KeyDown	41324	3	Middle	32
626.0216666666668	0	n/a	375614	KeyDown	41324	2	Ring	32
626.3050000000001	0	n/a	375784	KeyDown	41324	4	Index	32
626.6733333333334	0	n/a	376005	KeyDown	41324	4	Index	32
626.9150000000001	0	n/a	376150	KeyDown	41324	1	Little	32
627.2750000000001	0	n/a	376366	KeyDown	41324	3	Middle	32
627.5233333333334	0	n/a	376515	KeyDown	41324	2	Ring	32
627.7916666666667	0	n/a	376676	KeyDown	41324	4	Index	32
628.1833333333334	0	n/a	376911	KeyDown	41324	4	Index	32
628.4266666666667	0	n/a	377057	KeyDown	41324	1	Little	32
628.6533333333334	0	n/a	377193	KeyDown	41324	3	Middle	32
628.8900000000000	0	n/a	377335	KeyDown	41324	2	Ring	32
629.1116666666667	0	n/a	377468	KeyDown	41324	4	Index	32
629.5200000000001	0	n/a	377713	KeyDown	41324	4	Index	32
629.8000000000001	0	n/a	377881	KeyDown	41324	1	Little	32
630.0533333333334	0	n/a	378033	KeyDown	41324	3	Middle	32
630.2783333333334	0	n/a	378168	KeyDown	41324	2	Ring	32
630.5150000000000	0	n/a	378310	KeyDown	41324	4	Index	32
630.9050000000001	0	n/a	378544	KeyDown	41324	4	Index	32
631.1533333333334	0	n/a	378693	KeyDown	41324	1	Little	32
631.3500000000000	0	n/a	378811	KeyDown	41324	3	Middle	32
631.5900000000000	0	n/a	378955	KeyDown	41324	2	Ring	32
631.7983333333334	0	n/a	379080	KeyDown	41324	4	Index	32
631.8800000000000	0	n/a	379129	StopPractice	41324	n/a	n/a	32
631.8816666666667	0	n/a	379130	StartRest	XXXXX	n/a	n/a	32
641.9150000000001	0	n/a	385150	StopRest	XXXXX	n/a	n/a	32
641.9166666666667	0	UPPT001	385151	StartPractice	41324	n/a	n/a	33
642.5116666666667	0	n/a	385508	KeyDown	41324	4	Index	33
642.7633333333333	0	n/a	385659	KeyDown	41324	1	Little	33
643.0133333333333	0	n/a	385809	KeyDown	41324	3	Middle	33
643.2600000000000	0	n/a	385957	KeyDown	41324	2	Ring	33
643.4800000000000	0	n/a	386089	KeyDown	41324	4	Index	33
643.8000000000001	0	n/a	386281	KeyDown	41324	4	Index	33
644.0366666666667	0	n/a	386423	KeyDown	41324	1	Little	33
644.2883333333334	0	n/a	386574	KeyDown	41324	3	Middle	33
644.5250000000001	0	n/a	386716	KeyDown	41324	2	Ring	33
644.7533333333333	0	n/a	386853	KeyDown	41324	4	Index	33
645.0750000000000	0	n/a	387046	KeyDown	41324	4	Index	33
645.3050000000001	0	n/a	387184	KeyDown	41324	1	Little	33
645.5850000000000	0	n/a	387352	KeyDown	41324	3	Middle	33
645.8200000000001	0	n/a	387493	KeyDown	41324	2	Ring	33
646.0600000000001	0	n/a	387637	KeyDown	41324	4	Index	33
646.3683333333333	0	n/a	387822	KeyDown	41324	4	Index	33
646.5883333333334	0	n/a	387954	KeyDown	41324	1	Little	33
646.8666666666667	0	n/a	388121	KeyDown	41324	3	Middle	33
647.0766666666667	0	n/a	388247	KeyDown	41324	2	Ring	33
647.3683333333333	0	n/a	388422	KeyDown	41324	4	Index	33
647.6233333333333	0	n/a	388575	KeyDown	41324	4	Index	33
647.8766666666667	0	n/a	388727	KeyDown	41324	1	Little	33
648.1250000000000	0	n/a	388876	KeyDown	41324	3	Middle	33
648.3700000000000	0	n/a	389023	KeyDown	41324	2	Ring	33
648.5950000000000	0	n/a	389158	KeyDown	41324	4	Index	33
648.8483333333334	0	n/a	389310	KeyDown	41324	4	Index	33
649.0883333333334	0	n/a	389454	KeyDown	41324	1	Little	33
649.3133333333334	0	n/a	389589	KeyDown	41324	3	Middle	33
649.5400000000001	0	n/a	389725	KeyDown	41324	2	Ring	33
649.7566666666667	0	n/a	389855	KeyDown	41324	4	Index	33
650.0616666666667	0	n/a	390038	KeyDown	41324	4	Index	33
650.2766666666668	0	n/a	390167	KeyDown	41324	1	Little	33
650.5900000000000	0	n/a	390355	KeyDown	41324	4	Index	33
651.4500000000000	0	n/a	390871	KeyDown	41324	3	Middle	33
651.8833333333333	0	n/a	391131	KeyDown	41324	2	Ring	33
651.9550000000000	0	n/a	391174	StopPractice	41324	n/a	n/a	33
651.9566666666667	0	n/a	391175	StartRest	XXXXX	n/a	n/a	33
661.9916666666667	0	n/a	397196	StopRest	XXXXX	n/a	n/a	33
661.9933333333333	0	UPPT001	397197	StartPractice	41324	n/a	n/a	34
662.4566666666667	0	n/a	397475	KeyDown	41324	4	Index	34
662.9616666666667	0	n/a	397778	KeyDown	41324	1	Little	34
663.3166666666667	0	n/a	397991	KeyDown	41324	3	Middle	34
663.6016666666667	0	n/a	398162	KeyDown	41324	2	Ring	34
663.8766666666667	0	n/a	398327	KeyDown	41324	4	Index	34
664.2566666666667	0	n/a	398555	KeyDown	41324	4	Index	34
664.5516666666667	0	n/a	398732	KeyDown	41324	1	Little	34
664.8616666666667	0	n/a	398918	KeyDown	41324	3	Middle	34
665.1666666666667	0	n/a	399101	KeyDown	41324	2	Ring	34
665.4883333333333	0	n/a	399294	KeyDown	41324	4	Index	34
665.8416666666667	0	n/a	399506	KeyDown	41324	4	Index	34
666.1400000000000	0	n/a	399685	KeyDown	41324	1	Little	34
666.4616666666667	0	n/a	399878	KeyDown	41324	3	Middle	34
666.7450000000000	0	n/a	400048	KeyDown	41324	2	Ring	34
667.0483333333334	0	n/a	400230	KeyDown	41324	4	Index	34
667.3816666666667	0	n/a	400430	KeyDown	41324	4	Index	34
667.6450000000001	0	n/a	400588	KeyDown	41324	1	Little	34
667.9150000000001	0	n/a	400750	KeyDown	41324	3	Middle	34
668.2616666666667	0	n/a	400958	KeyDown	41324	2	Ring	34
668.5550000000001	0	n/a	401134	KeyDown	41324	4	Index	34
668.9366666666667	0	n/a	401363	KeyDown	41324	4	Index	34
669.2166666666667	0	n/a	401531	KeyDown	41324	1	Little	34
669.4966666666667	0	n/a	401699	KeyDown	41324	3	Middle	34
669.7766666666668	0	n/a	401867	KeyDown	41324	2	Ring	34
670.1000000000000	0	n/a	402061	KeyDown	41324	4	Index	34
670.4250000000001	0	n/a	402256	KeyDown	41324	4	Index	34
670.6766666666667	0	n/a	402407	KeyDown	41324	1	Little	34
670.9716666666667	0	n/a	402584	KeyDown	41324	3	Middle	34
671.2316666666667	0	n/a	402740	KeyDown	41324	2	Ring	34
671.5450000000001	0	n/a	402928	KeyDown	41324	4	Index	34
671.8566666666667	0	n/a	403115	KeyDown	41324	4	Index	34
672.0316666666668	0	n/a	403220	StopPractice	41324	n/a	n/a	34
672.0333333333334	0	n/a	403221	StartRest	XXXXX	n/a	n/a	34
682.0650000000001	0	n/a	409240	StopRest	XXXXX	n/a	n/a	34
682.0666666666667	0	UPPT001	409241	StartPractice	41324	n/a	n/a	35
682.6800000000001	0	n/a	409609	KeyDown	41324	4	Index	35
683.0083333333333	0	n/a	409806	KeyDown	41324	1	Little	35
683.3083333333334	0	n/a	409986	KeyDown	41324	3	Middle	35
683.5783333333334	0	n/a	410148	KeyDown	41324	2	Ring	35
683.8516666666667	0	n/a	410312	KeyDown	41324	4	Index	35
684.1533333333334	0	n/a	410493	KeyDown	41324	1	Little	35
684.8050000000001	0	n/a	410884	KeyDown	41324	3	Middle	35
685.0633333333334	0	n/a	411039	KeyDown	41324	2	Ring	35
685.3383333333334	0	n/a	411204	KeyDown	41324	4	Index	35
685.6183333333333	0	n/a	411372	KeyDown	41324	4	Index	35
685.8750000000000	0	n/a	411526	KeyDown	41324	1	Little	35
686.1200000000000	0	n/a	411673	KeyDown	41324	3	Middle	35
686.3533333333334	0	n/a	411813	KeyDown	41324	2	Ring	35
686.5900000000000	0	n/a	411955	KeyDown	41324	4	Index	35
686.8783333333333	0	n/a	412128	KeyDown	41324	4	Index	35
687.1583333333334	0	n/a	412296	KeyDown	41324	1	Little	35
687.4850000000000	0	n/a	412492	KeyDown	41324	3	Middle	35
687.7600000000000	0	n/a	412657	KeyDown	41324	2	Ring	35
688.0150000000001	0	n/a	412810	KeyDown	41324	4	Index	35
688.2850000000001	0	n/a	412972	KeyDown	41324	4	Index	35
688.5533333333334	0	n/a	413133	KeyDown	41324	1	Little	35
688.8350000000000	0	n/a	413302	KeyDown	41324	3	Middle	35
689.1016666666667	0	n/a	413462	KeyDown	41324	2	Ring	35
689.3966666666668	0	n/a	413639	KeyDown	41324	4	Index	35
689.7050000000000	0	n/a	413824	KeyDown	41324	4	Index	35
689.9600000000000	0	n/a	413977	KeyDown	41324	1	Little	35
690.4216666666667	0	n/a	414254	KeyDown	41324	3	Middle	35
690.7433333333333	0	n/a	414447	KeyDown	41324	2	Ring	35
690.9833333333333	0	n/a	414591	KeyDown	41324	4	Index	35
691.2650000000001	0	n/a	414760	KeyDown	41324	4	Index	35
691.5833333333334	0	n/a	414951	KeyDown	41324	1	Little	35
691.8900000000001	0	n/a	415135	KeyDown	41324	3	Middle	35
692.1050000000000	0	n/a	415264	StopPractice	41324	n/a	n/a	35
692.1066666666667	0	n/a	415265	StartRest	XXXXX	n/a	n/a	35
702.1400000000001	0	n/a	421285	StopRest	XXXXX	n/a	n/a	35
702.1416666666668	0	UPPT001	421286	StartPractice	41324	n/a	n/a	36
702.6183333333333	0	n/a	421572	KeyDown	41324	4	Index	36
702.9383333333334	0	n/a	421764	KeyDown	41324	1	Little	36
703.1850000000001	0	n/a	421912	KeyDown	41324	3	Middle	36
703.4366666666667	0	n/a	422063	KeyDown	41324	2	Ring	36
703.7000000000000	0	n/a	422221	KeyDown	41324	4	Index	36
704.0066666666667	0	n/a	422405	KeyDown	41324	4	Index	36
704.2983333333334	0	n/a	422580	KeyDown	41324	1	Little	36
704.5950000000000	0	n/a	422758	KeyDown	41324	3	Middle	36
704.8533333333334	0	n/a	422913	KeyDown	41324	2	Ring	36
705.1100000000000	0	n/a	423067	KeyDown	41324	4	Index	36
705.3950000000001	0	n/a	423238	KeyDown	41324	4	Index	36
705.6400000000001	0	n/a	423385	KeyDown	41324	1	Little	36
705.9383333333334	0	n/a	423564	KeyDown	41324	3	Middle	36
706.1966666666667	0	n/a	423719	KeyDown	41324	2	Ring	36
706.4500000000000	0	n/a	423871	KeyDown	41324	4	Index	36
706.7516666666667	0	n/a	424052	KeyDown	41324	4	Index	36
706.9916666666667	0	n/a	424196	KeyDown	41324	1	Little	36
707.3000000000001	0	n/a	424381	KeyDown	41324	3	Middle	36
707.5150000000001	0	n/a	424510	KeyDown	41324	2	Ring	36
707.7833333333334	0	n/a	424671	KeyDown	41324	4	Index	36
708.0316666666668	0	n/a	424820	KeyDown	41324	4	Index	36
708.3383333333334	0	n/a	425004	KeyDown	41324	1	Little	36
708.6416666666668	0	n/a	425186	KeyDown	41324	3	Middle	36
708.8883333333334	0	n/a	425334	KeyDown	41324	2	Ring	36
709.1183333333333	0	n/a	425472	KeyDown	41324	4	Index	36
709.3800000000000	0	n/a	425629	KeyDown	41324	4	Index	36
709.6550000000001	0	n/a	425794	KeyDown	41324	1	Little	36
709.9233333333334	0	n/a	425955	KeyDown	41324	3	Middle	36
710.1516666666668	0	n/a	426092	KeyDown	41324	2	Ring	36
710.4116666666667	0	n/a	426248	KeyDown	41324	4	Index	36
710.6650000000001	0	n/a	426400	KeyDown	41324	4	Index	36
710.9183333333334	0	n/a	426552	KeyDown	41324	1	Little	36
711.1850000000001	0	n/a	426712	KeyDown	41324	3	Middle	36
711.4283333333334	0	n/a	426858	KeyDown	41324	2	Ring	36
711.6533333333334	0	n/a	426993	KeyDown	41324	4	Index	36
711.9250000000001	0	n/a	427156	KeyDown	41324	4	Index	36
712.1800000000001	0	n/a	427309	StopPractice	41324	n/a	n/a	36
712.1816666666667	0	n/a	427310	StartRest	XXXXX	n/a	n/a	36
722.2166666666667	0	n/a	433331	StopRest	XXXXX	n/a	n/a	36
