onset	duration	channel	onset_sample_idx	event_type	target_sequence	keypress_id	finger_label	trial_number
7.0116666666667	0	UPPT001	4208	StartPractice	21342	n/a	n/a	1
9.8200000000000	0	n/a	5893	KeyDown	21342	2	Ring	1
10.0933333333333	0	n/a	6057	KeyDown	21342	1	Little	1
10.7050000000000	0	n/a	6424	KeyDown	21342	3	Middle	1
11.2583333333333	0	n/a	6756	KeyDown	21342	4	Index	1
11.6383333333333	0	n/a	6984	KeyDown	21342	2	Ring	1
12.1700000000000	0	n/a	7303	KeyDown	21342	2	Ring	1
12.5700000000000	0	n/a	7543	KeyDown	21342	1	Little	1
12.9250000000000	0	n/a	7756	KeyDown	21342	3	Middle	1
13.4933333333333	0	n/a	8097	KeyDown	21342	4	Index	1
13.8400000000000	0	n/a	8305	KeyDown	21342	2	Ring	1
14.5833333333333	0	n/a	8751	KeyDown	21342	2	Ring	1
15.0050000000000	0	n/a	9004	KeyDown	21342	1	Little	1
15.5266666666667	0	n/a	9317	KeyDown	21342	3	Middle	1
16.1500000000000	0	n/a	9691	KeyDown	21342	4	Index	1
16.8600000000000	0	n/a	10117	KeyDown	21342	2	Ring	1
17.0483333333333	0	n/a	10230	StopPractice	21342	n/a	n/a	1
17.0500000000000	0	n/a	10231	StartRest	XXXXX	n/a	n/a	1
27.0933333333333	0	n/a	16257	StopRest	XXXXX	n/a	n/a	1
27.0950000000000	0	UPPT001	16258	StartPractice	31214	n/a	n/a	2
28.2966666666667	0	n/a	16979	KeyDown	31214	3	Middle	2
28.4983333333333	0	n/a	17100	KeyDown	31214	1	Little	2
28.8766666666667	0	n/a	17327	KeyDown	31214	2	Ring	2
29.4066666666667	0	n/a	17645	KeyDown	31214	1	Little	2
29.7333333333333	0	n/a	17841	KeyDown	31214	4	Index	2
30.7116666666667	0	n/a	18428	KeyDown	31214	3	Middle	2
31.0183333333333	0	n/a	18612	KeyDown	31214	1	Little	2
31.2933333333333	0	n/a	18777	KeyDown	31214	2	Ring	2
31.9266666666667	0	n/a	19157	KeyDown	31214	1	Little	2
32.3383333333333	0	n/a	19404	KeyDown	31214	4	Index	2
33.1083333333333	0	n/a	19866	KeyDown	31214	3	Middle	2
33.4966666666667	0	n/a	20099	KeyDown	31214	1	Little	2
33.6666666666667	0	n/a	20201	KeyDown	31214	2	Ring	2
34.1783333333333	0	n/a	20508	KeyDown	31214	1	Little	2
34.4550000000000	0	n/a	20674	KeyDown	31214	4	Index	2
35.1366666666667	0	n/a	21083	KeyDown	31214	3	Middle	2
35.6133333333333	0	n/a	21369	KeyDown	31214	1	Little	2
35.8083333333333	0	n/a	21486	KeyDown	31214	2	Ring	2
36.4083333333333	0	n/a	21846	KeyDown	31214	1	Little	2
36.6850000000000	0	n/a	22012	KeyDown	31214	4	Index	2
37.1316666666667	0	n/a	22280	StopPractice	31214	n/a	n/a	2
37.1333333333333	0	n/a	22281	StartRest	XXXXX	n/a	n/a	2
47.1666666666667	0	n/a	28301	StopRest	XXXXX	n/a	n/a	2
47.1683333333333	0	UPPT001	28302	StartPractice	12434	n/a	n/a	3
47.8516666666667	0	n/a	28712	KeyDown	12434	1	Little	3
48.1066666666667	0	n/a	28865	KeyDown	12434	2	Ring	3
48.4750000000000	0	n/a	29086	KeyDown	12434	3	Middle	3
49.0400000000000	0	n/a	29425	KeyDown	12434	1	Little	3
49.2350000000000	0	n/a	29542	KeyDown	12434	2	Ring	3
49.5333333333333	0	n/a	29721	KeyDown	12434	4	Index	3
49.9133333333333	0	n/a	29949	KeyDown	12434	3	Middle	3
50.2000000000000	0	n/a	30121	KeyDown	12434	4	Index	3
50.5916666666667	0	n/a	30356	KeyDown	12434	1	Little	3
50.7900000000000	0	n/a	30475	KeyDown	12434	2	Ring	3
51.0750000000000	0	n/a	30646	KeyDown	12434	4	Index	3
51.3850000000000	0	n/a	30832	KeyDown	12434	3	Middle	3
51.6250000000000	0	n/a	30976	KeyDown	12434	4	Index	3
51.9333333333333	0	n/a	31161	KeyDown	12434	1	Little	3
52.1833333333333	0	n/a	31311	KeyDown	12434	2	Ring	3
52.6700000000000	0	n/a	31603	KeyDown	12434	4	Index	3
53.0550000000000	0	n/a	31834	KeyDown	12434	3	Middle	3
53.2950000000000	0	n/a	31978	KeyDown	12434	4	Index	3
53.6166666666667	0	n/a	32171	KeyDown	12434	1	Little	3
53.8150000000000	0	n/a	32290	KeyDown	12434	2	Ring	3
54.4200000000000	0	n/a	32653	KeyDown	12434	4	Index	3
55.0750000000000	0	n/a	33046	KeyDown	12434	3	Middle	3
55.2716666666667	0	n/a	33164	KeyDown	12434	4	Index	3
55.5216666666667	0	n/a	33314	KeyDown	12434	1	Little	3
55.7766666666667	0	n/a	33467	KeyDown	12434	2	Ring	3
56.3616666666667	0	n/a	33818	KeyDown	12434	4	Index	3
56.9316666666667	0	n/a	34160	KeyDown	12434	3	Middle	3
57.1700000000000	0	n/a	34303	KeyDown	12434	4	Index	3
57.2050000000000	0	n/a	34324	StopPractice	12434	n/a	n/a	3
57.2066666666667	0	n/a	34325	StartRest	XXXXX	n/a	n/a	3
67.2433333333333	0	n/a	40347	StopRest	XXXXX	n/a	n/a	3
67.2450000000000	0	UPPT001	40348	StartPractice	41321	n/a	n/a	4
68.1966666666667	0	n/a	40919	KeyDown	41321	4	Index	4
68.3733333333333	0	n/a	41025	KeyDown	41321	1	Little	4
69.0633333333333	0	n/a	41439	KeyDown	41321	3	Middle	4
69.6166666666667	0	n/a	41771	KeyDown	41321	4	Index	4
69.8333333333333	0	n/a	41901	KeyDown	41321	1	Little	4
70.1866666666667	0	n/a	42113	KeyDown	41321	3	Middle	4
70.7616666666667	0	n/a	42458	KeyDown	41321	2	Ring	4
70.9866666666667	0	n/a	42593	KeyDown	41321	1	Little	4
71.6066666666667	0	n/a	42965	KeyDown	41321	4	Index	4
71.7733333333333	0	n/a	43065	KeyDown	41321	1	Little	4
72.2316666666667	0	n/a	43340	KeyDown	41321	3	Middle	4
72.7316666666667	0	n/a	43640	KeyDown	41321	2	Ring	4
72.9600000000000	0	n/a	43777	KeyDown	41321	1	Little	4
73.3433333333333	0	n/a	44007	KeyDown	41321	4	Index	4
73.8966666666667	0	n/a	44339	KeyDown	41321	1	Little	4
74.4650000000000	0	n/a	44680	KeyDown	41321	3	Middle	4
74.8466666666667	0	n/a	44909	KeyDown	41321	2	Ring	4
75.0183333333333	0	n/a	45012	KeyDown	41321	1	Little	4
75.3666666666667	0	n/a	45221	KeyDown	41321	4	Index	4
75.7666666666667	0	n/a	45461	KeyDown	41321	1	Little	4
76.1583333333333	0	n/a	45696	KeyDown	41321	3	Middle	4
76.5566666666667	0	n/a	45935	KeyDown	41321	2	Ring	4
76.8550000000000	0	n/a	46114	KeyDown	41321	1	Little	4
77.2816666666667	0	n/a	46370	StopPractice	41321	n/a	n/a	4
77.2833333333333	0	n/a	46371	StartRest	XXXXX	n/a	n/a	4
87.3183333333333	0	n/a	52392	StopRest	XXXXX	n/a	n/a	4
87.3200000000000	0	UPPT001	52393	StartPractice	23241	n/a	n/a	5
88.1683333333333	0	n/a	52902	KeyDown	23241	1	Little	5
88.5416666666667	0	n/a	53126	KeyDown	23241	2	Ring	5
89.8333333333333	0	n/a	53901	KeyDown	23241	2	Ring	5
90.0183333333333	0	n/a	54012	KeyDown	23241	3	Middle	5
90.3633333333333	0	n/a	54219	KeyDown	23241	2	Ring	5
90.8116666666667	0	n/a	54488	KeyDown	23241	1	Little	5
91.0583333333333	0	n/a	54636	KeyDown	23241	4	Index	5
91.7916666666667	0	n/a	55076	KeyDown	23241	2	Ring	5
91.9866666666667	0	n/a	55193	KeyDown	23241	3	Middle	5
92.7383333333333	0	n/a	55644	KeyDown	23241	2	Ring	5
93.1850000000000	0	n/a	55912	KeyDown	23241	4	Index	5
93.3933333333333	0	n/a	56037	KeyDown	23241	1	Little	5
93.8933333333333	0	n/a	56337	KeyDown	23241	2	Ring	5
94.0583333333333	0	n/a	56436	KeyDown	23241	3	Middle	5
94.2766666666667	0	n/a	56567	KeyDown	23241	2	Ring	5
94.7316666666667	0	n/a	56840	KeyDown	23241	4	Index	5
94.9133333333333	0	n/a	56949	KeyDown	23241	1	Little	5
95.3716666666667	0	n/a	57224	KeyDown	23241	2	Ring	5
95.5550000000000	0	n/a	57334	KeyDown	23241	3	Middle	5
95.7300000000000	0	n/a	57439	KeyDown	23241	2	Ring	5
96.2533333333333	0	n/a	57753	KeyDown	23241	4	Index	5
96.4250000000000	0	n/a	57856	KeyDown	23241	1	Little	5
96.8766666666667	0	n/a	58127	KeyDown	23241	2	Ring	5
97.0433333333333	0	n/a	58227	KeyDown	23241	3	Middle	5
97.1700000000000	0	n/a	58303	KeyDown	23241	2	Ring	5
97.3566666666667	0	n/a	58415	StopPractice	23241	n/a	n/a	5
97.3583333333333	0	n/a	58416	StartRest	XXXXX	n/a	n/a	5
107.3933333333333	0	n/a	64437	StopRest	XXXXX	n/a	n/a	5
107.3950000000000	0	UPPT001	64438	StartPractice	31432	n/a	n/a	6
108.4066666666667	0	n/a	65045	KeyDown	31432	3	Middle	6
108.6316666666667	0	n/a	65180	KeyDown	31432	1	Little	6
109.0866666666667	0	n/a	65453	KeyDown	31432	4	Index	6
109.9883333333333	0	n/a	65994	KeyDown	31432	2	Ring	6
110.7883333333333	0	n/a	66474	KeyDown	31432	4	Index	6
111.3850000000000	0	n/a	66832	KeyDown	31432	3	Middle	6
111.7033333333333	0	n/a	67023	KeyDown	31432	1	Little	6
111.9566666666667	0	n/a	67175	KeyDown	31432	4	Index	6
112.3183333333333	0	n/a	67392	KeyDown	31432	3	Middle	6
112.5033333333333	0	n/a	67503	KeyDown	31432	2	Ring	6
113.2016666666667	0	n/a	67922	KeyDown	31432	4	Index	6
113.5316666666667	0	n/a	68120	KeyDown	31432	1	Little	6
114.4983333333333	0	n/a	68700	KeyDown	31432	4	Index	6
115.3866666666667	0	n/a	69233	KeyDown	31432	3	Middle	6
115.5900000000000	0	n/a	69355	KeyDown	31432	2	Ring	6
116.0616666666667	0	n/a	69638	KeyDown	31432	3	Middle	6
116.3833333333333	0	n/a	69831	KeyDown	31432	1	Little	6
117.0150000000000	0	n/a	70210	KeyDown	31432	4	Index	6
117.4316666666667	0	n/a	70460	StopPractice	31432	n/a	n/a	6
117.4333333333333	0	n/a	70461	StartRest	XXXXX	n/a	n/a	6
127.4666666666667	0	n/a	76481	StopRest	XXXXX	n/a	n/a	6
127.4683333333333	0	UPPT001	76482	StartPractice	23134	n/a	n/a	7
128.4916666666667	0	n/a	77096	KeyDown	23134	2	Ring	7
129.0616666666667	0	n/a	77438	KeyDown	23134	3	Middle	7
129.2250000000000	0	n/a	77536	KeyDown	23134	1	Little	7
129.5583333333333	0	n/a	77736	KeyDown	23134	3	Middle	7
129.9066666666667	0	n/a	77945	KeyDown	23134	4	Index	7
131.3783333333333	0	n/a	78828	KeyDown	23134	2	Ring	7
131.5400000000000	0	n/a	78925	KeyDown	23134	3	Middle	7
131.8616666666667	0	n/a	79118	KeyDown	23134	1	Little	7
132.1483333333333	0	n/a	79290	KeyDown	23134	3	Middle	7
132.4933333333333	0	n/a	79497	KeyDown	23134	4	Index	7
133.0866666666667	0	n/a	79853	KeyDown	23134	3	Middle	7
134.4050000000000	0	n/a	80644	KeyDown	23134	2	Ring	7
134.5966666666667	0	n/a	80759	KeyDown	23134	3	Middle	7
134.9150000000000	0	n/a	80950	KeyDown	23134	1	Little	7
135.2850000000000	0	n/a	81172	KeyDown	23134	3	Middle	7
135.5500000000000	0	n/a	81331	KeyDown	23134	4	Index	7
136.0066666666667	0	n/a	81605	KeyDown	23134	2	Ring	7
136.2200000000000	0	n/a	81733	KeyDown	23134	3	Middle	7
136.5866666666667	0	n/a	81953	KeyDown	23134	1	Little	7
136.9450000000000	0	n/a	82168	KeyDown	23134	3	Middle	7
137.2450000000000	0	n/a	82348	KeyDown	23134	4	Index	7
137.5050000000000	0	n/a	82504	StopPractice	23134	n/a	n/a	7
137.5066666666667	0	n/a	82505	StartRest	XXXXX	n/a	n/a	7
147.5433333333334	0	n/a	88527	StopRest	XXXXX	n/a	n/a	7
147.5450000000000	0	UPPT001	88528	StartPractice	12134	n/a	n/a	8
148.3983333333333	0	n/a	89040	KeyDown	12134	1	Little	8
148.6100000000000	0	n/a	89167	KeyDown	12134	2	Ring	8
148.8666666666667	0	n/a	89321	KeyDown	12134	1	Little	8
149.3016666666667	0	n/a	89582	KeyDown	12134	3	Middle	8
149.5533333333333	0	n/a	89733	KeyDown	12134	4	Index	8
149.9483333333334	0	n/a	89970	KeyDown	12134	1	Little	8
150.1300000000000	0	n/a	90079	KeyDown	12134	2	Ring	8
150.7316666666667	0	n/a	90440	KeyDown	12134	1	Little	8
151.2966666666667	0	n/a	90779	KeyDown	12134	3	Middle	8
151.5366666666667	0	n/a	90923	KeyDown	12134	4	Index	8
151.9733333333333	0	n/a	91185	KeyDown	12134	1	Little	8
152.1800000000000	0	n/a	91309	KeyDown	12134	2	Ring	8
152.4400000000000	0	n/a	91465	KeyDown	12134	1	Little	8
152.9383333333333	0	n/a	91764	KeyDown	12134	3	Middle	8
153.1133333333333	0	n/a	91869	KeyDown	12134	4	Index	8
153.4666666666667	0	n/a	92081	KeyDown	12134	1	Little	8
153.8433333333333	0	n/a	92307	KeyDown	12134	3	Middle	8
153.8966666666667	0	n/a	92339	KeyDown	12134	2	Ring	8
154.6083333333333	0	n/a	92766	KeyDown	12134	3	Middle	8
154.7766666666667	0	n/a	92867	KeyDown	12134	4	Index	8
155.1533333333333	0	n/a	93093	KeyDown	12134	1	Little	8
155.3266666666667	0	n/a	93197	KeyDown	12134	2	Ring	8
155.5900000000000	0	n/a	93355	KeyDown	12134	1	Little	8
155.7883333333334	0	n/a	93474	KeyDown	12134	3	Middle	8
156.0133333333333	0	n/a	93609	KeyDown	12134	4	Index	8
156.3766666666667	0	n/a	93827	KeyDown	12134	1	Little	8
156.5666666666667	0	n/a	93941	KeyDown	12134	2	Ring	8
156.7866666666667	0	n/a	94073	KeyDown	12134	1	Little	8
157.1933333333334	0	n/a	94317	KeyDown	12134	3	Middle	8
157.3283333333333	0	n/a	94398	KeyDown	12134	4	Index	8
157.5816666666667	0	n/a	94550	StopPractice	12134	n/a	n/a	8
157.5833333333333	0	n/a	94551	StartRest	XXXXX	n/a	n/a	8
167.6166666666667	0	n/a	100571	StopRest	XXXXX	n/a	n/a	8
167.6183333333333	0	UPPT001	100572	StartPractice	43241	n/a	n/a	9
169.1000000000000	0	n/a	101461	KeyDown	43241	4	Index	9
169.3566666666667	0	n/a	101615	KeyDown	43241	3	Middle	9
169.6083333333333	0	n/a	101766	KeyDown	43241	2	Ring	9
169.9666666666667	0	n/a	101981	KeyDown	43241	1	Little	9
170.2650000000000	0	n/a	102160	KeyDown	43241	4	Index	9
171.0566666666667	0	n/a	102635	KeyDown	43241	4	Index	9
171.2700000000000	0	n/a	102763	KeyDown	43241	3	Middle	9
171.9666666666667	0	n/a	103181	KeyDown	43241	2	Ring	9
172.6116666666667	0	n/a	103568	KeyDown	43241	4	Index	9
172.8866666666667	0	n/a	103733	KeyDown	43241	1	Little	9
174.2366666666667	0	n/a	104543	KeyDown	43241	4	Index	9
174.5900000000000	0	n/a	104755	KeyDown	43241	3	Middle	9
175.0350000000000	0	n/a	105022	KeyDown	43241	2	Ring	9
175.6450000000000	0	n/a	105388	KeyDown	43241	4	Index	9
175.8300000000000	0	n/a	105499	KeyDown	43241	1	Little	9
176.6850000000000	0	n/a	106012	KeyDown	43241	4	Index	9
177.1650000000000	0	n/a	106300	KeyDown	43241	3	Middle	9
177.6550000000000	0	n/a	106594	StopPractice	43241	n/a	n/a	9
177.6566666666667	0	n/a	106595	StartRest	XXXXX	n/a	n/a	9
187.6916666666667	0	n/a	112616	StopRest	XXXXX	n/a	n/a	9
