onset	duration	channel	onset_sample_idx	event_type	target_sequence	keypress_id	finger_label	trial_number
7.9433333333333	0	UPPT001	4767	StartPractice	41324	n/a	n/a	1
10.3800000000000	0	n/a	6229	KeyDown	41324	4	Index	1
10.9516666666667	0	n/a	6572	KeyDown	41324	1	Little	1
12.2050000000000	0	n/a	7324	KeyDown	41324	4	Index	1
14.1400000000000	0	n/a	8485	KeyDown	41324	3	Middle	1
15.1033333333333	0	n/a	9063	KeyDown	41324	2	Ring	1
15.6666666666667	0	n/a	9401	KeyDown	41324	4	Index	1
17.6666666666667	0	n/a	10601	KeyDown	41324	4	Index	1
17.9816666666667	0	n/a	10790	StopPractice	41324	n/a	n/a	1
17.9833333333333	0	n/a	10791	StartRest	XXXXX	n/a	n/a	1
28.0066666666667	0	n/a	16805	StopRest	XXXXX	n/a	n/a	1
28.0083333333333	0	UPPT001	16806	StartPractice	41324	n/a	n/a	2
29.3483333333333	0	n/a	17610	KeyDown	41324	4	Index	2
30.2016666666667	0	n/a	18122	KeyDown	41324	1	Little	2
31.0266666666667	0	n/a	18617	KeyDown	41324	3	Middle	2
31.5166666666667	0	n/a	18911	KeyDown	41324	2	Ring	2
31.9350000000000	0	n/a	19162	KeyDown	41324	4	Index	2
33.5250000000000	0	n/a	20116	KeyDown	41324	4	Index	2
34.0833333333333	0	n/a	20451	KeyDown	41324	1	Little	2
35.2766666666667	0	n/a	21167	KeyDown	41324	3	Middle	2
35.6966666666667	0	n/a	21419	KeyDown	41324	2	Ring	2
36.0716666666667	0	n/a	21644	KeyDown	41324	4	Index	2
37.0566666666667	0	n/a	22235	KeyDown	41324	4	Index	2
37.8600000000000	0	n/a	22717	KeyDown	41324	1	Little	2
38.0466666666667	0	n/a	22829	StopPractice	41324	n/a	n/a	2
38.0483333333333	0	n/a	22830	StartRest	XXXXX	n/a	n/a	2
48.0800000000000	0	n/a	28849	StopRest	XXXXX	n/a	n/a	2
48.0816666666667	0	UPPT001	28850	StartPractice	41324	n/a	n/a	3
49.0550000000000	0	n/a	29434	KeyDown	41324	4	Index	3
49.5816666666667	0	n/a	29750	KeyDown	41324	1	Little	3
50.0983333333333	0	n/a	30060	KeyDown	41324	3	Middle	3
50.5200000000000	0	n/a	30313	KeyDown	41324	2	Ring	3
51.0850000000000	0	n/a	30652	KeyDown	41324	4	Index	3
51.9783333333333	0	n/a	31188	KeyDown	41324	4	Index	3
52.7650000000000	0	n/a	31660	KeyDown	41324	1	Little	3
53.8950000000000	0	n/a	32338	KeyDown	41324	3	Middle	3
54.2633333333333	0	n/a	32559	KeyDown	41324	2	Ring	3
54.6350000000000	0	n/a	32782	KeyDown	41324	4	Index	3
55.1800000000000	0	n/a	33109	KeyDown	41324	4	Index	3
55.5666666666667	0	n/a	33341	KeyDown	41324	1	Little	3
55.9316666666667	0	n/a	33560	KeyDown	41324	3	Middle	3
56.1800000000000	0	n/a	33709	KeyDown	41324	2	Ring	3
56.4266666666667	0	n/a	33857	KeyDown	41324	4	Index	3
57.1150000000000	0	n/a	34270	KeyDown	41324	4	Index	3
57.7583333333333	0	n/a	34656	KeyDown	41324	1	Little	3
58.1200000000000	0	n/a	34873	StopPractice	41324	n/a	n/a	3
58.1216666666667	0	n/a	34874	StartRest	XXXXX	n/a	n/a	3
68.1550000000000	0	n/a	40894	StopRest	XXXXX	n/a	n/a	3
68.1566666666667	0	UPPT001	40895	StartPractice	41324	n/a	n/a	4
68.8700000000000	0	n/a	41323	KeyDown	41324	4	Index	4
69.4783333333333	0	n/a	41688	KeyDown	41324	1	Little	4
70.3833333333333	0	n/a	42231	KeyDown	41324	3	Middle	4
71.0083333333333	0	n/a	42606	KeyDown	41324	2	Ring	4
71.4250000000000	0	n/a	42856	KeyDown	41324	4	Index	4
72.3200000000000	0	n/a	43393	KeyDown	41324	4	Index	4
72.7633333333333	0	n/a	43659	KeyDown	41324	1	Little	4
73.3166666666667	0	n/a	43991	KeyDown	41324	3	Middle	4
73.6250000000000	0	n/a	44176	KeyDown	41324	2	Ring	4
74.5633333333333	0	n/a	44739	KeyDown	41324	4	Index	4
75.2866666666667	0	n/a	45173	KeyDown	41324	4	Index	4
75.6366666666667	0	n/a	45383	KeyDown	41324	1	Little	4
76.4633333333333	0	n/a	45879	KeyDown	41324	3	Middle	4
76.8583333333333	0	n/a	46116	KeyDown	41324	2	Ring	4
77.3383333333333	0	n/a	46404	KeyDown	41324	4	Index	4
78.1950000000000	0	n/a	46918	StopPractice	41324	n/a	n/a	4
78.1966666666667	0	n/a	46919	StartRest	XXXXX	n/a	n/a	4
88.2300000000000	0	n/a	52939	StopRest	XXXXX	n/a	n/a	4
88.2316666666667	0	UPPT001	52940	StartPractice	41324	n/a	n/a	5
88.7933333333333	0	n/a	53277	KeyDown	41324	4	Index	5
89.5633333333333	0	n/a	53739	KeyDown	41324	1	Little	5
90.1833333333333	0	n/a	54111	KeyDown	41324	3	Middle	5
90.5450000000000	0	n/a	54328	KeyDown	41324	2	Ring	5
90.8716666666667	0	n/a	54524	KeyDown	41324	4	Index	5
91.3316666666667	0	n/a	54800	KeyDown	41324	4	Index	5
91.7300000000000	0	n/a	55039	KeyDown	41324	1	Little	5
92.1150000000000	0	n/a	55270	KeyDown	41324	3	Middle	5
92.3483333333333	0	n/a	55410	KeyDown	41324	2	Ring	5
92.9583333333333	0	n/a	55776	KeyDown	41324	4	Index	5
94.3433333333333	0	n/a	56607	KeyDown	41324	4	Index	5
95.3516666666667	0	n/a	57212	KeyDown	41324	1	Little	5
95.8733333333333	0	n/a	57525	KeyDown	41324	3	Middle	5
96.2333333333333	0	n/a	57741	KeyDown	41324	2	Ring	5
96.5750000000000	0	n/a	57946	KeyDown	41324	4	Index	5
97.2900000000000	0	n/a	58375	KeyDown	41324	4	Index	5
97.6133333333333	0	n/a	58569	KeyDown	41324	1	Little	5
97.9383333333333	0	n/a	58764	KeyDown	41324	3	Middle	5
98.1900000000000	0	n/a	58915	KeyDown	41324	2	Ring	5
98.2700000000000	0	n/a	58963	StopPractice	41324	n/a	n/a	5
98.2716666666667	0	n/a	58964	StartRest	XXXXX	n/a	n/a	5
108.3050000000000	0	n/a	64984	StopRest	XXXXX	n/a	n/a	5
108.3066666666667	0	UPPT001	64985	StartPractice	41324	n/a	n/a	6
108.9300000000000	0	n/a	65359	KeyDown	41324	4	Index	6
109.4400000000000	0	n/a	65665	KeyDown	41324	1	Little	6
109.8950000000000	0	n/a	65938	KeyDown	41324	3	Middle	6
110.1083333333333	0	n/a	66066	KeyDown	41324	2	Ring	6
110.5916666666667	0	n/a	66356	KeyDown	41324	4	Index	6
111.0633333333333	0	n/a	66639	KeyDown	41324	4	Index	6
111.4333333333333	0	n/a	66861	KeyDown	41324	1	Little	6
111.7566666666667	0	n/a	67055	KeyDown	41324	3	Middle	6
111.9933333333333	0	n/a	67197	KeyDown	41324	2	Ring	6
112.2500000000000	0	n/a	67351	KeyDown	41324	4	Index	6
112.7683333333333	0	n/a	67662	KeyDown	41324	4	Index	6
113.0700000000000	0	n/a	67843	KeyDown	41324	1	Little	6
113.3500000000000	0	n/a	68011	KeyDown	41324	3	Middle	6
113.6050000000000	0	n/a	68164	KeyDown	41324	2	Ring	6
114.5216666666667	0	n/a	68714	KeyDown	41324	4	Index	6
115.3616666666667	0	n/a	69218	KeyDown	41324	4	Index	6
115.6150000000000	0	n/a	69370	KeyDown	41324	1	Little	6
115.8366666666667	0	n/a	69503	KeyDown	41324	3	Middle	6
116.0350000000000	0	n/a	69622	KeyDown	41324	2	Ring	6
116.2250000000000	0	n/a	69736	KeyDown	41324	4	Index	6
117.0916666666667	0	n/a	70256	KeyDown	41324	4	Index	6
117.3066666666667	0	n/a	70385	KeyDown	41324	1	Little	6
117.5166666666667	0	n/a	70511	KeyDown	41324	3	Middle	6
117.7183333333333	0	n/a	70632	KeyDown	41324	2	Ring	6
117.9100000000000	0	n/a	70747	KeyDown	41324	4	Index	6
118.3450000000000	0	n/a	71008	StopPractice	41324	n/a	n/a	6
118.3466666666667	0	n/a	71009	StartRest	XXXXX	n/a	n/a	6
128.3800000000000	0	n/a	77029	StopRest	XXXXX	n/a	n/a	6
128.3816666666667	0	UPPT001	77030	StartPractice	41324	n/a	n/a	7
129.1033333333334	0	n/a	77463	KeyDown	41324	4	Index	7
129.4916666666667	0	n/a	77696	KeyDown	41324	1	Little	7
129.8800000000000	0	n/a	77929	KeyDown	41324	3	Middle	7
130.1100000000000	0	n/a	78067	KeyDown	41324	2	Ring	7
130.3650000000000	0	n/a	78220	KeyDown	41324	4	Index	7
130.7183333333333	0	n/a	78432	KeyDown	41324	4	Index	7
130.9416666666667	0	n/a	78566	KeyDown	41324	1	Little	7
131.1583333333333	0	n/a	78696	KeyDown	41324	3	Middle	7
131.3533333333334	0	n/a	78813	KeyDown	41324	2	Ring	7
131.6883333333333	0	n/a	79014	KeyDown	41324	4	Index	7
132.0283333333333	0	n/a	79218	KeyDown	41324	4	Index	7
132.3083333333333	0	n/a	79386	KeyDown	41324	1	Little	7
132.5566666666667	0	n/a	79535	KeyDown	41324	3	Middle	7
132.7250000000000	0	n/a	79636	KeyDown	41324	2	Ring	7
132.9366666666667	0	n/a	79763	KeyDown	41324	4	Index	7
133.3050000000000	0	n/a	79984	KeyDown	41324	4	Index	7
133.5933333333333	0	n/a	80157	KeyDown	41324	1	Little	7
133.8850000000000	0	n/a	80332	KeyDown	41324	3	Middle	7
134.1000000000000	0	n/a	80461	KeyDown	41324	2	Ring	7
134.2800000000000	0	n/a	80569	KeyDown	41324	4	Index	7
134.6450000000000	0	n/a	80788	KeyDown	41324	4	Index	7
134.9316666666667	0	n/a	80960	KeyDown	41324	1	Little	7
135.1700000000000	0	n/a	81103	KeyDown	41324	3	Middle	7
135.4900000000000	0	n/a	81295	KeyDown	41324	2	Ring	7
136.1833333333333	0	n/a	81711	KeyDown	41324	4	Index	7
137.2300000000000	0	n/a	82339	KeyDown	41324	4	Index	7
137.7366666666667	0	n/a	82643	KeyDown	41324	1	Little	7
138.2050000000000	0	n/a	82924	KeyDown	41324	3	Middle	7
138.4200000000000	0	n/a	83053	StopPractice	41324	n/a	n/a	7
138.4216666666667	0	n/a	83054	StartRest	XXXXX	n/a	n/a	7
148.4550000000000	0	n/a	89074	StopRest	XXXXX	n/a	n/a	7
148.4566666666667	0	UPPT001	89075	StartPractice	41324	n/a	n/a	8
149.2033333333333	0	n/a	89523	KeyDown	41324	4	Index	8
149.5150000000000	0	n/a	89710	KeyDown	41324	1	Little	8
149.7633333333333	0	n/a	89859	KeyDown	41324	3	Middle	8
149.9883333333333	0	n/a	89994	KeyDown	41324	2	Ring	8
150.2050000000000	0	n/a	90124	KeyDown	41324	4	Index	8
150.5933333333333	0	n/a	90357	KeyDown	41324	4	Index	8
150.8683333333333	0	n/a	90522	KeyDown	41324	1	Little	8
151.1183333333333	0	n/a	90672	KeyDown	41324	3	Middle	8
151.2916666666667	0	n/a	90776	KeyDown	41324	2	Ring	8
151.5016666666667	0	n/a	90902	KeyDown	41324	4	Index	8
151.8833333333334	0	n/a	91131	KeyDown	41324	4	Index	8
152.9383333333333	0	n/a	91764	KeyDown	41324	1	Little	8
153.1916666666667	0	n/a	91916	KeyDown	41324	3	Middle	8
153.3783333333333	0	n/a	92028	KeyDown	41324	2	Ring	8
153.5933333333333	0	n/a	92157	KeyDown	41324	4	Index	8
154.2216666666667	0	n/a	92534	KeyDown	41324	4	Index	8
154.5000000000000	0	n/a	92701	KeyDown	41324	1	Little	8
154.7250000000000	0	n/a	92836	KeyDown	41324	3	Middle	8
154.9033333333333	0	n/a	92943	KeyDown	41324	2	Ring	8
155.1050000000000	0	n/a	93064	KeyDown	41324	4	Index	8
155.5600000000000	0	n/a	93337	KeyDown	41324	4	Index	8
156.0183333333333	0	n/a	93612	KeyDown	41324	1	Little	8
156.2950000000000	0	n/a	93778	KeyDown	41324	3	Middle	8
156.4650000000000	0	n/a	93880	KeyDown	41324	2	Ring	8
156.6766666666667	0	n/a	94007	KeyDown	41324	4	Index	8
157.2350000000000	0	n/a	94342	KeyDown	41324	4	Index	8
157.5083333333334	0	n/a	94506	KeyDown	41324	1	Little	8
157.7550000000000	0	n/a	94654	KeyDown	41324	3	Middle	8
157.9233333333333	0	n/a	94755	KeyDown	41324	2	Ring	8
158.0950000000000	0	n/a	94858	KeyDown	41324	4	Index	8
158.4950000000000	0	n/a	95098	StopPractice	41324	n/a	n/a	8
158.4966666666667	0	n/a	95099	StartRest	XXXXX	n/a	n/a	8
168.5300000000000	0	n/a	101119	StopRest	XXXXX	n/a	n/a	8
168.5316666666667	0	UPPT001	101120	StartPractice	41324	n/a	n/a	9
169.1983333333334	0	n/a	101520	KeyDown	41324	4	Index	9
169.4566666666667	0	n/a	101675	KeyDown	41324	1	Little	9
170.2683333333333	0	n/a	102162	KeyDown	41324	3	Middle	9
170.5183333333333	0	n/a	102312	KeyDown	41324	2	Ring	9
170.8250000000000	0	n/a	102496	KeyDown	41324	4	Index	9
171.4083333333333	0	n/a	102846	KeyDown	41324	4	Index	9
172.0850000000000	0	n/a	103252	KeyDown	41324	1	Little	9
173.0683333333334	0	n/a	103842	KeyDown	41324	3	Middle	9
173.3350000000000	0	n/a	104002	KeyDown	41324	2	Ring	9
173.6466666666667	0	n/a	104189	KeyDown	41324	4	Index	9
173.9500000000000	0	n/a	104371	KeyDown	41324	4	Index	9
174.1583333333333	0	n/a	104496	KeyDown	41324	1	Little	9
174.3566666666667	0	n/a	104615	KeyDown	41324	3	Middle	9
174.5450000000000	0	n/a	104728	KeyDown	41324	2	Ring	9
174.8183333333334	0	n/a	104892	KeyDown	41324	4	Index	9
175.1233333333333	0	n/a	105075	KeyDown	41324	4	Index	9
175.3550000000000	0	n/a	105214	KeyDown	41324	1	Little	9
175.5766666666667	0	n/a	105347	KeyDown	41324	3	Middle	9
175.8100000000000	0	n/a	105487	KeyDown	41324	2	Ring	9
175.9950000000000	0	n/a	105598	KeyDown	41324	4	Index	9
176.3016666666667	0	n/a	105782	KeyDown	41324	4	Index	9
176.5266666666667	0	n/a	105917	KeyDown	41324	1	Little	9
176.7400000000000	0	n/a	106045	KeyDown	41324	3	Middle	9
176.9483333333334	0	n/a	106170	KeyDown	41324	2	Ring	9
177.1416666666667	0	n/a	106286	KeyDown	41324	4	Index	9
177.4550000000000	0	n/a	106474	KeyDown	41324	4	Index	9
177.6666666666667	0	n/a	106601	KeyDown	41324	1	Little	9
177.9233333333333	0	n/a	106755	KeyDown	41324	3	Middle	9
178.1033333333334	0	n/a	106863	KeyDown	41324	2	Ring	9
178.2933333333334	0	n/a	106977	KeyDown	41324	4	Index	9
178.5700000000000	0	n/a	107143	StopPractice	41324	n/a	n/a	9
178.5716666666667	0	n/a	107144	StartRest	XXXXX	n/a	n/a	9
188.6050000000000	0	n/a	113164	StopRest	XXXXX	n/a	n/a	9
188.6066666666667	0	UPPT001	113165	StartPractice	41324	n/a	n/a	10
189.1916666666667	0	n/a	113516	KeyDown	41324	4	Index	10
189.4883333333333	0	n/a	113694	KeyDown	41324	1	Little	10
189.7550000000000	0	n/a	113854	KeyDown	41324	3	Middle	10
189.9583333333333	0	n/a	113976	KeyDown	41324	2	Ring	10
190.1233333333333	0	n/a	114075	KeyDown	41324	4	Index	10
190.4316666666667	0	n/a	114260	KeyDown	41324	4	Index	10
190.6566666666667	0	n/a	114395	KeyDown	41324	1	Little	10
190.8600000000000	0	n/a	114517	KeyDown	41324	3	Middle	10
191.0283333333333	0	n/a	114618	KeyDown	41324	2	Ring	10
191.2150000000000	0	n/a	114730	KeyDown	41324	4	Index	10
191.5166666666667	0	n/a	114911	KeyDown	41324	4	Index	10
191.7266666666667	0	n/a	115037	KeyDown	41324	1	Little	10
191.9550000000000	0	n/a	115174	KeyDown	41324	3	Middle	10
192.1450000000000	0	n/a	115288	KeyDown	41324	2	Ring	10
192.3433333333333	0	n/a	115407	KeyDown	41324	4	Index	10
192.6166666666667	0	n/a	115571	KeyDown	41324	4	Index	10
192.8150000000000	0	n/a	115690	KeyDown	41324	1	Little	10
193.0483333333333	0	n/a	115830	KeyDown	41324	3	Middle	10
193.2450000000000	0	n/a	115948	KeyDown	41324	2	Ring	10
193.4250000000000	0	n/a	116056	KeyDown	41324	4	Index	10
193.8000000000000	0	n/a	116281	KeyDown	41324	4	Index	10
194.1183333333333	0	n/a	116472	KeyDown	41324	1	Little	10
194.3483333333334	0	n/a	116610	KeyDown	41324	3	Middle	10
194.5200000000000	0	n/a	116713	KeyDown	41324	2	Ring	10
194.7100000000000	0	n/a	116827	KeyDown	41324	4	Index	10
195.0550000000000	0	n/a	117034	KeyDown	41324	4	Index	10
195.2500000000000	0	n/a	117151	KeyDown	41324	1	Little	10
195.5033333333334	0	n/a	117303	KeyDown	41324	3	Middle	10
195.7650000000000	0	n/a	117460	KeyDown	41324	2	Ring	10
196.2850000000000	0	n/a	117772	KeyDown	41324	4	Index	10
196.6550000000000	0	n/a	117994	KeyDown	41324	4	Index	10
196.8933333333333	0	n/a	118137	KeyDown	41324	1	Little	10
197.1166666666667	0	n/a	118271	KeyDown	41324	3	Middle	10
197.2683333333333	0	n/a	118362	KeyDown	41324	2	Ring	10
197.4400000000000	0	n/a	118465	KeyDown	41324	4	Index	10
197.7933333333334	0	n/a	118677	KeyDown	41324	4	Index	10
197.9766666666667	0	n/a	118787	KeyDown	41324	1	Little	10
198.1933333333334	0	n/a	118917	KeyDown	41324	3	Middle	10
198.3266666666667	0	n/a	118997	KeyDown	41324	2	Ring	10
198.5150000000000	0	n/a	119110	KeyDown	41324	4	Index	10
198.6450000000000	0	n/a	119188	StopPractice	41324	n/a	n/a	10
198.6466666666667	0	n/a	119189	StartRest	XXXXX	n/a	n/a	10
208.6783333333333	0	n/a	125208	StopRest	XXXXX	n/a	n/a	10
208.6800000000000	0	UPPT001	125209	StartPractice	41324	n/a	n/a	11
209.5816666666667	0	n/a	125750	KeyDown	41324	4	Index	11
209.8116666666667	0	n/a	125888	KeyDown	41324	1	Little	11
210.0383333333334	0	n/a	126024	KeyDown	41324	3	Middle	11
210.2183333333333	0	n/a	126132	KeyDown	41324	2	Ring	11
210.3766666666667	0	n/a	126227	KeyDown	41324	4	Index	11
210.6116666666667	0	n/a	126368	KeyDown	41324	4	Index	11
210.7766666666667	0	n/a	126467	KeyDown	41324	1	Little	11
210.9766666666667	0	n/a	126587	KeyDown	41324	3	Middle	11
211.1333333333334	0	n/a	126681	KeyDown	41324	2	Ring	11
211.2916666666667	0	n/a	126776	KeyDown	41324	4	Index	11
212.7166666666667	0	n/a	127631	KeyDown	41324	4	Index	11
213.0300000000000	0	n/a	127819	KeyDown	41324	1	Little	11
213.3200000000000	0	n/a	127993	KeyDown	41324	3	Middle	11
213.8816666666667	0	n/a	128330	KeyDown	41324	2	Ring	11
214.1833333333333	0	n/a	128511	KeyDown	41324	4	Index	11
214.5266666666667	0	n/a	128717	KeyDown	41324	4	Index	11
214.8016666666667	0	n/a	128882	KeyDown	41324	1	Little	11
215.0666666666667	0	n/a	129041	KeyDown	41324	3	Middle	11
215.3483333333334	0	n/a	129210	KeyDown	41324	2	Ring	11
215.6766666666667	0	n/a	129407	KeyDown	41324	4	Index	11
215.9616666666667	0	n/a	129578	KeyDown	41324	4	Index	11
216.2883333333334	0	n/a	129774	KeyDown	41324	1	Little	11
216.5933333333333	0	n/a	129957	KeyDown	41324	3	Middle	11
216.8333333333333	0	n/a	130101	KeyDown	41324	2	Ring	11
217.1083333333333	0	n/a	130266	KeyDown	41324	4	Index	11
217.4183333333334	0	n/a	130452	KeyDown	41324	4	Index	11
217.6433333333333	0	n/a	130587	KeyDown	41324	1	Little	11
217.9250000000000	0	n/a	130756	KeyDown	41324	3	Middle	11
218.1616666666667	0	n/a	130898	KeyDown	41324	2	Ring	11
218.4266666666667	0	n/a	131057	KeyDown	41324	4	Index	11
218.7183333333333	0	n/a	131232	StopPractice	41324	n/a	n/a	11
218.7200000000000	0	n/a	131233	StartRest	XXXXX	n/a	n/a	11
228.7533333333334	0	n/a	137253	StopRest	XXXXX	n/a	n/a	11
228.7550000000000	0	UPPT001	137254	StartPractice	41324	n/a	n/a	12
229.2816666666667	0	n/a	137570	KeyDown	41324	4	Index	12
229.5016666666667	0	n/a	137702	KeyDown	41324	1	Little	12
229.7216666666667	0	n/a	137834	KeyDown	41324	3	Middle	12
229.9016666666667	0	n/a	137942	KeyDown	41324	2	Ring	12
230.0733333333334	0	n/a	138045	KeyDown	41324	4	Index	12
230.3066666666667	0	n/a	138185	KeyDown	41324	4	Index	12
230.4766666666667	0	n/a	138287	KeyDown	41324	1	Little	12
230.6783333333333	0	n/a	138408	KeyDown	41324	3	Middle	12
230.8466666666667	0	n/a	138509	KeyDown	41324	2	Ring	12
231.0183333333333	0	n/a	138612	KeyDown	41324	4	Index	12
231.2350000000000	0	n/a	138742	KeyDown	41324	4	Index	12
231.4166666666667	0	n/a	138851	KeyDown	41324	1	Little	12
231.7300000000000	0	n/a	139039	KeyDown	41324	3	Middle	12
232.0066666666667	0	n/a	139205	KeyDown	41324	2	Ring	12
232.2050000000000	0	n/a	139324	KeyDown	41324	4	Index	12
232.5966666666667	0	n/a	139559	KeyDown	41324	4	Index	12
232.8600000000000	0	n/a	139717	KeyDown	41324	1	Little	12
233.1516666666667	0	n/a	139892	KeyDown	41324	3	Middle	12
233.3350000000000	0	n/a	140002	KeyDown	41324	2	Ring	12
233.6050000000000	0	n/a	140164	KeyDown	41324	4	Index	12
233.9950000000000	0	n/a	140398	KeyDown	41324	4	Index	12
234.2633333333333	0	n/a	140559	KeyDown	41324	1	Little	12
234.5583333333333	0	n/a	140736	KeyDown	41324	3	Middle	12
234.7616666666667	0	n/a	140858	KeyDown	41324	2	Ring	12
234.9883333333333	0	n/a	140994	KeyDown	41324	4	Index	12
235.3100000000000	0	n/a	141187	KeyDown	41324	4	Index	12
235.8016666666667	0	n/a	141482	KeyDown	41324	1	Little	12
236.5366666666667	0	n/a	141923	KeyDown	41324	3	Middle	12
236.7633333333333	0	n/a	142059	KeyDown	41324	2	Ring	12
236.9633333333333	0	n/a	142179	KeyDown	41324	4	Index	12
237.2866666666667	0	n/a	142373	KeyDown	41324	4	Index	12
237.5916666666667	0	n/a	142556	KeyDown	41324	1	Little	12
237.8416666666667	0	n/a	142706	KeyDown	41324	3	Middle	12
238.0266666666667	0	n/a	142817	KeyDown	41324	2	Ring	12
238.2133333333333	0	n/a	142929	KeyDown	41324	4	Index	12
238.5550000000000	0	n/a	143134	KeyDown	41324	4	Index	12
238.7933333333334	0	n/a	143277	StopPractice	41324	n/a	n/a	12
238.7950000000000	0	n/a	143278	StartRest	XXXXX	n/a	n/a	12
248.8283333333333	0	n/a	149298	StopRest	XXXXX	n/a	n/a	12
248.8300000000000	0	UPPT001	149299	StartPractice	41324	n/a	n/a	13
249.3000000000000	0	n/a	149581	KeyDown	41324	4	Index	13
249.5633333333334	0	n/a	149739	KeyDown	41324	1	Little	13
250.0850000000000	0	n/a	150052	KeyDown	41324	2	Ring	13
250.2633333333333	0	n/a	150159	KeyDown	41324	4	Index	13
250.5350000000000	0	n/a	150322	KeyDown	41324	4	Index	13
250.7466666666667	0	n/a	150449	KeyDown	41324	1	Little	13
250.9866666666667	0	n/a	150593	KeyDown	41324	3	Middle	13
251.1600000000000	0	n/a	150697	KeyDown	41324	2	Ring	13
251.3616666666667	0	n/a	150818	KeyDown	41324	4	Index	13
251.6066666666667	0	n/a	150965	KeyDown	41324	4	Index	13
251.8150000000000	0	n/a	151090	KeyDown	41324	1	Little	13
252.0366666666667	0	n/a	151223	KeyDown	41324	3	Middle	13
252.1983333333334	0	n/a	151320	KeyDown	41324	2	Ring	13
252.3966666666667	0	n/a	151439	KeyDown	41324	4	Index	13
252.6666666666667	0	n/a	151601	KeyDown	41324	4	Index	13
252.8483333333334	0	n/a	151710	KeyDown	41324	1	Little	13
253.1216666666667	0	n/a	151874	KeyDown	41324	3	Middle	13
253.3266666666667	0	n/a	151997	KeyDown	41324	2	Ring	13
253.5083333333334	0	n/a	152106	KeyDown	41324	4	Index	13
253.7816666666667	0	n/a	152270	KeyDown	41324	4	Index	13
253.9950000000000	0	n/a	152398	KeyDown	41324	1	Little	13
254.3550000000000	0	n/a	152614	KeyDown	41324	3	Middle	13
254.5316666666667	0	n/a	152720	KeyDown	41324	2	Ring	13
254.7233333333334	0	n/a	152835	KeyDown	41324	4	Index	13
255.0016666666667	0	n/a	153002	KeyDown	41324	4	Index	13
255.2050000000000	0	n/a	153124	KeyDown	41324	1	Little	13
255.4383333333334	0	n/a	153264	KeyDown	41324	3	Middle	13
255.6366666666667	0	n/a	153383	KeyDown	41324	2	Ring	13
255.8333333333333	0	n/a	153501	KeyDown	41324	4	Index	13
256.0833333333334	0	n/a	153651	KeyDown	41324	4	Index	13
256.3150000000000	0	n/a	153790	KeyDown	41324	1	Little	13
256.6516666666667	0	n/a	153992	KeyDown	41324	3	Middle	13
256.8383333333334	0	n/a	154104	KeyDown	41324	2	Ring	13
257.0266666666667	0	n/a	154217	KeyDown	41324	4	Index	13
257.6766666666667	0	n/a	154607	KeyDown	41324	4	Index	13
257.8766666666667	0	n/a	154727	KeyDown	41324	1	Little	13
258.1366666666667	0	n/a	154883	KeyDown	41324	3	Middle	13
258.3150000000000	0	n/a	154990	KeyDown	41324	2	Ring	13
258.5200000000000	0	n/a	155113	KeyDown	41324	4	Index	13
258.8683333333333	0	n/a	155322	StopPractice	41324	n/a	n/a	13
258.8700000000000	0	n/a	155323	StartRest	XXXXX	n/a	n/a	13
268.9033333333334	0	n/a	161343	StopRest	XXXXX	n/a	n/a	13
268.9050000000000	0	UPPT001	161344	StartPractice	41324	n/a	n/a	14
269.4666666666667	0	n/a	161681	KeyDown	41324	4	Index	14
269.7166666666667	0	n/a	161831	KeyDown	41324	1	Little	14
269.9516666666667	0	n/a	161972	KeyDown	41324	3	Middle	14
270.1383333333334	0	n/a	162084	KeyDown	41324	2	Ring	14
270.3233333333333	0	n/a	162195	KeyDown	41324	4	Index	14
270.5566666666667	0	n/a	162335	KeyDown	41324	4	Index	14
270.7433333333333	0	n/a	162447	KeyDown	41324	1	Little	14
270.9633333333334	0	n/a	162579	KeyDown	41324	3	Middle	14
271.1566666666667	0	n/a	162695	KeyDown	41324	2	Ring	14
271.3316666666667	0	n/a	162800	KeyDown	41324	4	Index	14
271.5966666666667	0	n/a	162959	KeyDown	41324	4	Index	14
271.8133333333333	0	n/a	163089	KeyDown	41324	1	Little	14
272.0316666666667	0	n/a	163220	KeyDown	41324	3	Middle	14
272.2150000000000	0	n/a	163330	KeyDown	41324	2	Ring	14
272.4033333333334	0	n/a	163443	KeyDown	41324	4	Index	14
272.6433333333334	0	n/a	163587	KeyDown	41324	4	Index	14
272.8400000000000	0	n/a	163705	KeyDown	41324	1	Little	14
273.0983333333334	0	n/a	163860	KeyDown	41324	3	Middle	14
273.2850000000000	0	n/a	163972	KeyDown	41324	2	Ring	14
273.4833333333333	0	n/a	164091	KeyDown	41324	4	Index	14
273.7283333333334	0	n/a	164238	KeyDown	41324	4	Index	14
273.9283333333333	0	n/a	164358	KeyDown	41324	1	Little	14
274.2266666666667	0	n/a	164537	KeyDown	41324	3	Middle	14
274.3833333333333	0	n/a	164631	KeyDown	41324	2	Ring	14
274.6016666666667	0	n/a	164762	KeyDown	41324	4	Index	14
274.8000000000000	0	n/a	164881	KeyDown	41324	4	Index	14
275.0016666666667	0	n/a	165002	KeyDown	41324	1	Little	14
275.6183333333333	0	n/a	165372	KeyDown	41324	3	Middle	14
275.8450000000000	0	n/a	165508	KeyDown	41324	2	Ring	14
276.1633333333334	0	n/a	165699	KeyDown	41324	4	Index	14
276.3966666666667	0	n/a	165839	KeyDown	41324	4	Index	14
276.6183333333333	0	n/a	165972	KeyDown	41324	1	Little	14
276.8766666666667	0	n/a	166127	KeyDown	41324	3	Middle	14
277.0550000000000	0	n/a	166234	KeyDown	41324	2	Ring	14
277.2433333333333	0	n/a	166347	KeyDown	41324	4	Index	14
277.4483333333333	0	n/a	166470	KeyDown	41324	4	Index	14
277.6750000000000	0	n/a	166606	KeyDown	41324	1	Little	14
278.0133333333334	0	n/a	166809	KeyDown	41324	3	Middle	14
278.2483333333333	0	n/a	166950	KeyDown	41324	2	Ring	14
278.5233333333334	0	n/a	167115	KeyDown	41324	4	Index	14
278.7533333333333	0	n/a	167253	KeyDown	41324	4	Index	14
278.9433333333333	0	n/a	167367	StopPractice	41324	n/a	n/a	14
278.9450000000000	0	n/a	167368	StartRest	XXXXX	n/a	n/a	14
288.9783333333334	0	n/a	173388	StopRest	XXXXX	n/a	n/a	14
288.9800000000000	0	UPPT001	173389	StartPractice	41324	n/a	n/a	15
289.4966666666667	0	n/a	173699	KeyDown	41324	4	Index	15
289.7066666666667	0	n/a	173825	KeyDown	41324	1	Little	15
289.9250000000000	0	n/a	173956	KeyDown	41324	3	Middle	15
290.1166666666667	0	n/a	174071	KeyDown	41324	2	Ring	15
290.4766666666667	0	n/a	174287	KeyDown	41324	4	Index	15
290.7066666666667	0	n/a	174425	KeyDown	41324	4	Index	15
290.8900000000000	0	n/a	174535	KeyDown	41324	1	Little	15
291.1033333333334	0	n/a	174663	KeyDown	41324	3	Middle	15
291.2566666666667	0	n/a	174755	KeyDown	41324	2	Ring	15
291.4583333333334	0	n/a	174876	KeyDown	41324	4	Index	15
291.7316666666667	0	n/a	175040	KeyDown	41324	4	Index	15
291.9116666666667	0	n/a	175148	KeyDown	41324	1	Little	15
292.2266666666667	0	n/a	175337	KeyDown	41324	3	Middle	15
292.4116666666667	0	n/a	175448	KeyDown	41324	2	Ring	15
292.6183333333333	0	n/a	175572	KeyDown	41324	4	Index	15
292.8433333333334	0	n/a	175707	KeyDown	41324	4	Index	15
293.0483333333333	0	n/a	175830	KeyDown	41324	1	Little	15
293.2866666666667	0	n/a	175973	KeyDown	41324	3	Middle	15
293.4583333333334	0	n/a	176076	KeyDown	41324	2	Ring	15
293.6383333333334	0	n/a	176184	KeyDown	41324	4	Index	15
293.8733333333333	0	n/a	176325	KeyDown	41324	4	Index	15
294.0683333333333	0	n/a	176442	KeyDown	41324	1	Little	15
294.3433333333334	0	n/a	176607	KeyDown	41324	3	Middle	15
294.5450000000000	0	n/a	176728	KeyDown	41324	2	Ring	15
294.7250000000000	0	n/a	176836	KeyDown	41324	4	Index	15
294.9216666666667	0	n/a	176954	KeyDown	41324	4	Index	15
295.1133333333333	0	n/a	177069	KeyDown	41324	1	Little	15
295.3616666666667	0	n/a	177218	KeyDown	41324	3	Middle	15
295.5583333333333	0	n/a	177336	KeyDown	41324	2	Ring	15
295.7600000000000	0	n/a	177457	KeyDown	41324	4	Index	15
295.9466666666667	0	n/a	177569	KeyDown	41324	4	Index	15
296.1216666666667	0	n/a	177674	KeyDown	41324	1	Little	15
296.3500000000000	0	n/a	177811	KeyDown	41324	3	Middle	15
296.6283333333333	0	n/a	177978	KeyDown	41324	2	Ring	15
297.2833333333334	0	n/a	178371	KeyDown	41324	4	Index	15
297.5316666666667	0	n/a	178520	KeyDown	41324	4	Index	15
297.7183333333334	0	n/a	178632	KeyDown	41324	1	Little	15
297.9966666666667	0	n/a	178799	KeyDown	41324	3	Middle	15
298.1816666666667	0	n/a	178910	KeyDown	41324	2	Ring	15
298.3666666666667	0	n/a	179021	KeyDown	41324	4	Index	15
298.5883333333334	0	n/a	179154	KeyDown	41324	4	Index	15
298.7866666666667	0	n/a	179273	KeyDown	41324	1	Little	15
299.0183333333334	0	n/a	179412	StopPractice	41324	n/a	n/a	15
299.0200000000000	0	n/a	179413	StartRest	XXXXX	n/a	n/a	15
309.0533333333333	0	n/a	185433	StopRest	XXXXX	n/a	n/a	15
309.0550000000000	0	UPPT001	185434	StartPractice	41324	n/a	n/a	16
309.5950000000000	0	n/a	185758	KeyDown	41324	4	Index	16
309.8166666666667	0	n/a	185891	KeyDown	41324	1	Little	16
310.0683333333333	0	n/a	186042	KeyDown	41324	3	Middle	16
310.2700000000000	0	n/a	186163	KeyDown	41324	2	Ring	16
310.4516666666667	0	n/a	186272	KeyDown	41324	4	Index	16
310.6616666666667	0	n/a	186398	KeyDown	41324	4	Index	16
310.8466666666667	0	n/a	186509	KeyDown	41324	1	Little	16
311.0600000000000	0	n/a	186637	KeyDown	41324	3	Middle	16
311.2366666666667	0	n/a	186743	KeyDown	41324	2	Ring	16
311.5783333333334	0	n/a	186948	KeyDown	41324	4	Index	16
311.8033333333333	0	n/a	187083	KeyDown	41324	4	Index	16
311.9883333333333	0	n/a	187194	KeyDown	41324	1	Little	16
312.2300000000000	0	n/a	187339	KeyDown	41324	3	Middle	16
312.3966666666667	0	n/a	187439	KeyDown	41324	2	Ring	16
312.5766666666667	0	n/a	187547	KeyDown	41324	4	Index	16
312.8000000000000	0	n/a	187681	KeyDown	41324	4	Index	16
312.9833333333333	0	n/a	187791	KeyDown	41324	1	Little	16
313.2066666666667	0	n/a	187925	KeyDown	41324	3	Middle	16
313.3733333333333	0	n/a	188025	KeyDown	41324	2	Ring	16
313.5600000000000	0	n/a	188137	KeyDown	41324	4	Index	16
313.7700000000000	0	n/a	188263	KeyDown	41324	4	Index	16
313.9566666666667	0	n/a	188375	KeyDown	41324	1	Little	16
314.1783333333333	0	n/a	188508	KeyDown	41324	3	Middle	16
314.3900000000000	0	n/a	188635	KeyDown	41324	2	Ring	16
314.5866666666667	0	n/a	188753	KeyDown	41324	4	Index	16
315.7516666666667	0	n/a	189452	KeyDown	41324	4	Index	16
315.9983333333333	0	n/a	189600	KeyDown	41324	1	Little	16
316.2983333333333	0	n/a	189780	KeyDown	41324	3	Middle	16
316.5233333333334	0	n/a	189915	KeyDown	41324	2	Ring	16
317.2400000000000	0	n/a	190345	KeyDown	41324	4	Index	16
317.5666666666667	0	n/a	190541	KeyDown	41324	4	Index	16
317.9100000000000	0	n/a	190747	KeyDown	41324	1	Little	16
318.1816666666667	0	n/a	190910	KeyDown	41324	3	Middle	16
318.4150000000000	0	n/a	191050	KeyDown	41324	2	Ring	16
318.6316666666667	0	n/a	191180	KeyDown	41324	4	Index	16
318.8600000000000	0	n/a	191317	KeyDown	41324	4	Index	16
319.0616666666667	0	n/a	191438	KeyDown	41324	1	Little	16
319.0933333333334	0	n/a	191457	StopPractice	41324	n/a	n/a	16
319.0950000000000	0	n/a	191458	StartRest	XXXXX	n/a	n/a	16
329.1283333333333	0	n/a	197478	StopRest	XXXXX	n/a	n/a	16
329.1300000000000	0	UPPT001	197479	StartPractice	41324	n/a	n/a	17
329.8266666666667	0	n/a	197897	KeyDown	41324	4	Index	17
330.0783333333334	0	n/a	198048	KeyDown	41324	1	Little	17
330.3083333333333	0	n/a	198186	KeyDown	41324	3	Middle	17
330.4900000000000	0	n/a	198295	KeyDown	41324	2	Ring	17
330.6916666666667	0	n/a	198416	KeyDown	41324	4	Index	17
330.9033333333334	0	n/a	198543	KeyDown	41324	4	Index	17
331.0850000000000	0	n/a	198652	KeyDown	41324	1	Little	17
331.3150000000000	0	n/a	198790	KeyDown	41324	3	Middle	17
331.4716666666667	0	n/a	198884	KeyDown	41324	2	Ring	17
331.6716666666667	0	n/a	199004	KeyDown	41324	4	Index	17
331.8783333333333	0	n/a	199128	KeyDown	41324	4	Index	17
332.0666666666667	0	n/a	199241	KeyDown	41324	1	Little	17
332.3016666666667	0	n/a	199382	KeyDown	41324	3	Middle	17
332.4666666666667	0	n/a	199481	KeyDown	41324	2	Ring	17
332.6866666666667	0	n/a	199613	KeyDown	41324	4	Index	17
332.9583333333334	0	n/a	199776	KeyDown	41324	4	Index	17
333.1516666666667	0	n/a	199892	KeyDown	41324	1	Little	17
333.5050000000000	0	n/a	200104	KeyDown	41324	3	Middle	17
333.6566666666667	0	n/a	200195	KeyDown	41324	2	Ring	17
333.8950000000000	0	n/a	200338	KeyDown	41324	4	Index	17
334.1283333333333	0	n/a	200478	KeyDown	41324	4	Index	17
334.3233333333334	0	n/a	200595	KeyDown	41324	1	Little	17
334.6683333333334	0	n/a	200802	KeyDown	41324	3	Middle	17
334.8733333333333	0	n/a	200925	KeyDown	41324	2	Ring	17
335.8016666666667	0	n/a	201482	KeyDown	41324	4	Index	17
336.1383333333334	0	n/a	201684	KeyDown	41324	4	Index	17
336.6683333333334	0	n/a	202002	KeyDown	41324	1	Little	17
336.9250000000000	0	n/a	202156	KeyDown	41324	3	Middle	17
337.1233333333333	0	n/a	202275	KeyDown	41324	2	Ring	17
337.3366666666667	0	n/a	202403	KeyDown	41324	4	Index	17
337.6816666666667	0	n/a	202610	KeyDown	41324	4	Index	17
337.9266666666667	0	n/a	202757	KeyDown	41324	1	Little	17
338.1883333333333	0	n/a	202914	KeyDown	41324	3	Middle	17
338.3816666666667	0	n/a	203030	KeyDown	41324	2	Ring	17
338.5916666666667	0	n/a	203156	KeyDown	41324	4	Index	17
339.1483333333334	0	n/a	203490	KeyDown	41324	4	Index	17
339.1683333333334	0	n/a	203502	StopPractice	41324	n/a	n/a	17
339.1700000000000	0	n/a	203503	StartRest	XXXXX	n/a	n/a	17
349.2033333333334	0	n/a	209523	StopRest	XXXXX	n/a	n/a	17
349.2050000000000	0	UPPT001	209524	StartPractice	41324	n/a	n/a	18
351.0216666666667	0	n/a	210614	KeyDown	41324	4	Index	18
351.6766666666667	0	n/a	211007	KeyDown	41324	1	Little	18
351.9583333333334	0	n/a	211176	KeyDown	41324	3	Middle	18
352.2033333333334	0	n/a	211323	KeyDown	41324	2	Ring	18
352.4866666666667	0	n/a	211493	KeyDown	41324	4	Index	18
352.7383333333333	0	n/a	211644	KeyDown	41324	4	Index	18
352.9616666666667	0	n/a	211778	KeyDown	41324	1	Little	18
353.2033333333334	0	n/a	211923	KeyDown	41324	3	Middle	18
353.4650000000000	0	n/a	212080	KeyDown	41324	2	Ring	18
353.7483333333333	0	n/a	212250	KeyDown	41324	4	Index	18
354.0100000000000	0	n/a	212407	KeyDown	41324	4	Index	18
354.2400000000000	0	n/a	212545	KeyDown	41324	1	Little	18
354.4683333333334	0	n/a	212682	KeyDown	41324	3	Middle	18
354.6783333333333	0	n/a	212808	KeyDown	41324	2	Ring	18
354.9266666666667	0	n/a	212957	KeyDown	41324	4	Index	18
355.1733333333333	0	n/a	213105	KeyDown	41324	4	Index	18
355.8300000000000	0	n/a	213499	KeyDown	41324	1	Little	18
356.1383333333334	0	n/a	213684	KeyDown	41324	3	Middle	18
356.4283333333333	0	n/a	213858	KeyDown	41324	2	Ring	18
356.9616666666667	0	n/a	214178	KeyDown	41324	4	Index	18
357.6333333333334	0	n/a	214581	KeyDown	41324	4	Index	18
357.9250000000000	0	n/a	214756	KeyDown	41324	1	Little	18
358.6983333333334	0	n/a	215220	KeyDown	41324	3	Middle	18
358.9366666666667	0	n/a	215363	KeyDown	41324	2	Ring	18
359.2116666666667	0	n/a	215528	KeyDown	41324	4	Index	18
359.2433333333333	0	n/a	215547	StopPractice	41324	n/a	n/a	18
359.2450000000000	0	n/a	215548	StartRest	XXXXX	n/a	n/a	18
369.2766666666667	0	n/a	221567	StopRest	XXXXX	n/a	n/a	18
369.2783333333334	0	UPPT001	221568	StartPractice	41324	n/a	n/a	19
369.8416666666667	0	n/a	221906	KeyDown	41324	4	Index	19
370.1316666666667	0	n/a	222080	KeyDown	41324	1	Little	19
370.3533333333334	0	n/a	222213	KeyDown	41324	3	Middle	19
370.5600000000000	0	n/a	222337	KeyDown	41324	2	Ring	19
370.8100000000000	0	n/a	222487	KeyDown	41324	4	Index	19
371.6316666666667	0	n/a	222980	KeyDown	41324	4	Index	19
371.8883333333334	0	n/a	223134	KeyDown	41324	1	Little	19
372.1266666666667	0	n/a	223277	KeyDown	41324	3	Middle	19
372.7616666666667	0	n/a	223658	KeyDown	41324	2	Ring	19
373.2316666666667	0	n/a	223940	KeyDown	41324	4	Index	19
373.6066666666667	0	n/a	224165	KeyDown	41324	4	Index	19
373.8783333333333	0	n/a	224328	KeyDown	41324	1	Little	19
374.1366666666667	0	n/a	224483	KeyDown	41324	3	Middle	19
374.3816666666667	0	n/a	224630	KeyDown	41324	2	Ring	19
374.6916666666667	0	n/a	224816	KeyDown	41324	4	Index	19
375.1200000000000	0	n/a	225073	KeyDown	41324	4	Index	19
375.4033333333334	0	n/a	225243	KeyDown	41324	1	Little	19
375.7816666666667	0	n/a	225470	KeyDown	41324	3	Middle	19
376.0016666666667	0	n/a	225602	KeyDown	41324	2	Ring	19
376.2916666666667	0	n/a	225776	KeyDown	41324	4	Index	19
376.6050000000000	0	n/a	225964	KeyDown	41324	4	Index	19
376.8466666666667	0	n/a	226109	KeyDown	41324	1	Little	19
377.2300000000000	0	n/a	226339	KeyDown	41324	3	Middle	19
377.4966666666667	0	n/a	226499	KeyDown	41324	2	Ring	19
377.7650000000000	0	n/a	226660	KeyDown	41324	4	Index	19
378.0450000000000	0	n/a	226828	KeyDown	41324	4	Index	19
378.3016666666667	0	n/a	226982	KeyDown	41324	1	Little	19
378.5400000000000	0	n/a	227125	KeyDown	41324	3	Middle	19
378.7800000000000	0	n/a	227269	KeyDown	41324	2	Ring	19
379.3166666666667	0	n/a	227591	StopPractice	41324	n/a	n/a	19
379.3183333333334	0	n/a	227592	StartRest	XXXXX	n/a	n/a	19
389.3533333333334	0	n/a	233613	StopRest	XXXXX	n/a	n/a	19
389.3550000000000	0	UPPT001	233614	StartPractice	41324	n/a	n/a	20
389.9633333333334	0	n/a	233979	KeyDown	41324	4	Index	20
390.1866666666667	0	n/a	234113	KeyDown	41324	1	Little	20
390.3766666666667	0	n/a	234227	KeyDown	41324	3	Middle	20
390.5966666666667	0	n/a	234359	KeyDown	41324	2	Ring	20
390.8216666666667	0	n/a	234494	KeyDown	41324	4	Index	20
391.0416666666667	0	n/a	234626	KeyDown	41324	4	Index	20
391.2366666666667	0	n/a	234743	KeyDown	41324	1	Little	20
391.4483333333334	0	n/a	234870	KeyDown	41324	3	Middle	20
391.6166666666667	0	n/a	234971	KeyDown	41324	2	Ring	20
391.8433333333334	0	n/a	235107	KeyDown	41324	4	Index	20
392.0700000000001	0	n/a	235243	KeyDown	41324	4	Index	20
392.2783333333334	0	n/a	235368	KeyDown	41324	1	Little	20
392.6116666666667	0	n/a	235568	KeyDown	41324	3	Middle	20
392.8200000000001	0	n/a	235693	KeyDown	41324	2	Ring	20
393.0666666666667	0	n/a	235841	KeyDown	41324	4	Index	20
393.3183333333334	0	n/a	235992	KeyDown	41324	4	Index	20
393.5166666666667	0	n/a	236111	KeyDown	41324	1	Little	20
393.7716666666667	0	n/a	236264	KeyDown	41324	3	Middle	20
393.9700000000000	0	n/a	236383	KeyDown	41324	2	Ring	20
394.2216666666667	0	n/a	236534	KeyDown	41324	4	Index	20
394.4883333333333	0	n/a	236694	KeyDown	41324	4	Index	20
394.7116666666667	0	n/a	236828	KeyDown	41324	1	Little	20
395.1116666666667	0	n/a	237068	KeyDown	41324	3	Middle	20
395.3366666666667	0	n/a	237203	KeyDown	41324	2	Ring	20
395.6333333333334	0	n/a	237381	KeyDown	41324	4	Index	20
395.9166666666667	0	n/a	237551	KeyDown	41324	4	Index	20
396.3166666666667	0	n/a	237791	KeyDown	41324	1	Little	20
396.6483333333334	0	n/a	237990	KeyDown	41324	3	Middle	20
396.8683333333333	0	n/a	238122	KeyDown	41324	2	Ring	20
397.1250000000000	0	n/a	238276	KeyDown	41324	4	Index	20
397.3666666666667	0	n/a	238421	KeyDown	41324	4	Index	20
397.6050000000000	0	n/a	238564	KeyDown	41324	1	Little	20
397.8566666666667	0	n/a	238715	KeyDown	41324	3	Middle	20
398.0900000000000	0	n/a	238855	KeyDown	41324	2	Ring	20
398.6216666666667	0	n/a	239174	KeyDown	41324	4	Index	20
398.9633333333334	0	n/a	239379	KeyDown	41324	4	Index	20
399.1766666666667	0	n/a	239507	KeyDown	41324	1	Little	20
399.3933333333334	0	n/a	239637	StopPractice	41324	n/a	n/a	20
399.3950000000000	0	n/a	239638	StartRest	XXXXX	n/a	n/a	20
409.4266666666667	0	n/a	245657	StopRest	XXXXX	n/a	n/a	20
409.4283333333333	0	UPPT001	245658	StartPractice	41324	n/a	n/a	21
411.1300000000001	0	n/a	246679	KeyDown	41324	4	Index	21
411.3450000000000	0	n/a	246808	KeyDown	41324	1	Little	21
411.5466666666667	0	n/a	246929	KeyDown	41324	3	Middle	21
411.7583333333334	0	n/a	247056	KeyDown	41324	2	Ring	21
412.0333333333334	0	n/a	247221	KeyDown	41324	4	Index	21
412.4583333333334	0	n/a	247476	KeyDown	41324	4	Index	21
412.6416666666667	0	n/a	247586	KeyDown	41324	1	Little	21
412.8433333333334	0	n/a	247707	KeyDown	41324	3	Middle	21
413.0266666666667	0	n/a	247817	KeyDown	41324	2	Ring	21
413.2216666666667	0	n/a	247934	KeyDown	41324	4	Index	21
413.4516666666667	0	n/a	248072	KeyDown	41324	4	Index	21
413.6233333333333	0	n/a	248175	KeyDown	41324	1	Little	21
413.8300000000000	0	n/a	248299	KeyDown	41324	3	Middle	21
413.9983333333333	0	n/a	248400	KeyDown	41324	2	Ring	21
414.2150000000000	0	n/a	248530	KeyDown	41324	4	Index	21
414.4566666666667	0	n/a	248675	KeyDown	41324	4	Index	21
414.6283333333334	0	n/a	248778	KeyDown	41324	1	Little	21
415.0316666666667	0	n/a	249020	KeyDown	41324	3	Middle	21
415.2150000000000	0	n/a	249130	KeyDown	41324	2	Ring	21
415.4266666666667	0	n/a	249257	KeyDown	41324	4	Index	21
415.6366666666667	0	n/a	249383	KeyDown	41324	4	Index	21
415.8316666666667	0	n/a	249500	KeyDown	41324	1	Little	21
416.0700000000001	0	n/a	249643	KeyDown	41324	3	Middle	21
416.2416666666667	0	n/a	249746	KeyDown	41324	2	Ring	21
416.4466666666667	0	n/a	249869	KeyDown	41324	4	Index	21
416.6683333333334	0	n/a	250002	KeyDown	41324	4	Index	21
416.8650000000000	0	n/a	250120	KeyDown	41324	1	Little	21
417.2833333333334	0	n/a	250371	KeyDown	41324	3	Middle	21
417.5300000000000	0	n/a	250519	KeyDown	41324	2	Ring	21
417.7600000000000	0	n/a	250657	KeyDown	41324	4	Index	21
418.9750000000000	0	n/a	251386	KeyDown	41324	4	Index	21
419.3733333333333	0	n/a	251625	KeyDown	41324	1	Little	21
419.4666666666667	0	n/a	251681	StopPractice	41324	n/a	n/a	21
419.4683333333334	0	n/a	251682	StartRest	XXXXX	n/a	n/a	21
429.5016666666667	0	n/a	257702	StopRest	XXXXX	n/a	n/a	21
429.5033333333334	0	UPPT001	257703	StartPractice	41324	n/a	n/a	22
430.0866666666667	0	n/a	258053	KeyDown	41324	4	Index	22
430.3650000000000	0	n/a	258220	KeyDown	41324	1	Little	22
430.6000000000000	0	n/a	258361	KeyDown	41324	3	Middle	22
430.8816666666667	0	n/a	258530	KeyDown	41324	2	Ring	22
431.2166666666667	0	n/a	258731	KeyDown	41324	4	Index	22
431.5550000000000	0	n/a	258934	KeyDown	41324	4	Index	22
431.8383333333334	0	n/a	259104	KeyDown	41324	1	Little	22
432.0916666666667	0	n/a	259256	KeyDown	41324	3	Middle	22
432.3633333333333	0	n/a	259419	KeyDown	41324	2	Ring	22
432.6600000000000	0	n/a	259597	KeyDown	41324	4	Index	22
432.9900000000000	0	n/a	259795	KeyDown	41324	4	Index	22
433.3216666666667	0	n/a	259994	KeyDown	41324	1	Little	22
433.5650000000001	0	n/a	260140	KeyDown	41324	3	Middle	22
433.8150000000001	0	n/a	260290	KeyDown	41324	2	Ring	22
434.0983333333334	0	n/a	260460	KeyDown	41324	4	Index	22
434.4433333333334	0	n/a	260667	KeyDown	41324	4	Index	22
434.7400000000000	0	n/a	260845	KeyDown	41324	1	Little	22
435.0550000000000	0	n/a	261034	KeyDown	41324	3	Middle	22
435.3216666666667	0	n/a	261194	KeyDown	41324	2	Ring	22
435.6516666666667	0	n/a	261392	KeyDown	41324	4	Index	22
435.9900000000000	0	n/a	261595	KeyDown	41324	4	Index	22
436.2450000000000	0	n/a	261748	KeyDown	41324	1	Little	22
436.7466666666667	0	n/a	262049	KeyDown	41324	3	Middle	22
436.9816666666667	0	n/a	262190	KeyDown	41324	2	Ring	22
437.2766666666667	0	n/a	262367	KeyDown	41324	4	Index	22
437.5716666666667	0	n/a	262544	KeyDown	41324	4	Index	22
437.8366666666667	0	n/a	262703	KeyDown	41324	1	Little	22
438.0966666666667	0	n/a	262859	KeyDown	41324	3	Middle	22
438.3266666666667	0	n/a	262997	KeyDown	41324	2	Ring	22
438.5766666666667	0	n/a	263147	KeyDown	41324	4	Index	22
438.8450000000000	0	n/a	263308	KeyDown	41324	4	Index	22
439.0516666666667	0	n/a	263432	KeyDown	41324	1	Little	22
439.3066666666667	0	n/a	263585	KeyDown	41324	3	Middle	22
439.5416666666667	0	n/a	263726	StopPractice	41324	n/a	n/a	22
439.5433333333334	0	n/a	263727	StartRest	XXXXX	n/a	n/a	22
449.5783333333334	0	n/a	269748	StopRest	XXXXX	n/a	n/a	22
449.5800000000000	0	UPPT001	269749	StartPractice	41324	n/a	n/a	23
450.1833333333333	0	n/a	270111	KeyDown	41324	4	Index	23
450.4650000000000	0	n/a	270280	KeyDown	41324	1	Little	23
450.7150000000000	0	n/a	270430	KeyDown	41324	3	Middle	23
451.0716666666667	0	n/a	270644	KeyDown	41324	2	Ring	23
451.8583333333333	0	n/a	271116	KeyDown	41324	4	Index	23
452.2183333333334	0	n/a	271332	KeyDown	41324	4	Index	23
452.4883333333333	0	n/a	271494	KeyDown	41324	1	Little	23
452.7333333333333	0	n/a	271641	KeyDown	41324	3	Middle	23
452.9883333333333	0	n/a	271794	KeyDown	41324	2	Ring	23
453.2916666666667	0	n/a	271976	KeyDown	41324	4	Index	23
453.7283333333334	0	n/a	272238	KeyDown	41324	4	Index	23
454.0500000000000	0	n/a	272431	KeyDown	41324	1	Little	23
454.5066666666667	0	n/a	272705	KeyDown	41324	3	Middle	23
455.1733333333333	0	n/a	273105	KeyDown	41324	2	Ring	23
455.7016666666667	0	n/a	273422	KeyDown	41324	4	Index	23
456.4350000000000	0	n/a	273862	KeyDown	41324	4	Index	23
456.8183333333334	0	n/a	274092	KeyDown	41324	1	Little	23
457.1333333333334	0	n/a	274281	KeyDown	41324	3	Middle	23
457.3866666666667	0	n/a	274433	KeyDown	41324	2	Ring	23
457.7100000000000	0	n/a	274627	KeyDown	41324	4	Index	23
458.1966666666667	0	n/a	274919	KeyDown	41324	4	Index	23
458.4466666666667	0	n/a	275069	KeyDown	41324	1	Little	23
458.7283333333334	0	n/a	275238	KeyDown	41324	3	Middle	23
458.9883333333333	0	n/a	275394	KeyDown	41324	2	Ring	23
459.3216666666667	0	n/a	275594	KeyDown	41324	4	Index	23
459.6183333333333	0	n/a	275772	StopPractice	41324	n/a	n/a	23
459.6200000000000	0	n/a	275773	StartRest	XXXXX	n/a	n/a	23
469.6516666666667	0	n/a	281792	StopRest	XXXXX	n/a	n/a	23
469.6533333333334	0	UPPT001	281793	StartPractice	41324	n/a	n/a	24
470.4116666666667	0	n/a	282248	KeyDown	41324	4	Index	24
470.6716666666667	0	n/a	282404	KeyDown	41324	1	Little	24
470.9433333333334	0	n/a	282567	KeyDown	41324	3	Middle	24
471.1800000000000	0	n/a	282709	KeyDown	41324	2	Ring	24
471.4666666666667	0	n/a	282881	KeyDown	41324	4	Index	24
471.8200000000001	0	n/a	283093	KeyDown	41324	4	Index	24
472.1233333333334	0	n/a	283275	KeyDown	41324	1	Little	24
472.4583333333334	0	n/a	283476	KeyDown	41324	3	Middle	24
472.7216666666667	0	n/a	283634	KeyDown	41324	2	Ring	24
473.0316666666667	0	n/a	283820	KeyDown	41324	4	Index	24
473.8100000000000	0	n/a	284287	KeyDown	41324	4	Index	24
474.1200000000000	0	n/a	284473	KeyDown	41324	1	Little	24
474.3766666666667	0	n/a	284627	KeyDown	41324	3	Middle	24
474.6416666666667	0	n/a	284786	KeyDown	41324	2	Ring	24
475.3050000000000	0	n/a	285184	KeyDown	41324	4	Index	24
475.7100000000000	0	n/a	285427	KeyDown	41324	4	Index	24
475.9950000000000	0	n/a	285598	KeyDown	41324	1	Little	24
476.7450000000000	0	n/a	286048	KeyDown	41324	3	Middle	24
477.0966666666667	0	n/a	286259	KeyDown	41324	2	Ring	24
477.4466666666667	0	n/a	286469	KeyDown	41324	4	Index	24
477.9183333333334	0	n/a	286752	KeyDown	41324	4	Index	24
478.5866666666667	0	n/a	287153	KeyDown	41324	1	Little	24
478.9300000000000	0	n/a	287359	KeyDown	41324	3	Middle	24
479.1866666666667	0	n/a	287513	KeyDown	41324	2	Ring	24
479.5050000000001	0	n/a	287704	KeyDown	41324	4	Index	24
479.6916666666667	0	n/a	287816	StopPractice	41324	n/a	n/a	24
479.6933333333334	0	n/a	287817	StartRest	XXXXX	n/a	n/a	24
489.7266666666667	0	n/a	293837	StopRest	XXXXX	n/a	n/a	24
489.7283333333334	0	UPPT001	293838	StartPractice	41324	n/a	n/a	25
490.3166666666667	0	n/a	294191	KeyDown	41324	4	Index	25
490.7466666666667	0	n/a	294449	KeyDown	41324	1	Little	25
491.2066666666667	0	n/a	294725	KeyDown	41324	3	Middle	25
491.4583333333334	0	n/a	294876	KeyDown	41324	2	Ring	25
491.8233333333334	0	n/a	295095	KeyDown	41324	4	Index	25
492.2100000000000	0	n/a	295327	KeyDown	41324	4	Index	25
492.4716666666667	0	n/a	295484	KeyDown	41324	1	Little	25
492.7433333333333	0	n/a	295647	KeyDown	41324	3	Middle	25
492.9766666666667	0	n/a	295787	KeyDown	41324	2	Ring	25
493.2600000000000	0	n/a	295957	KeyDown	41324	4	Index	25
493.7700000000000	0	n/a	296263	KeyDown	41324	4	Index	25
494.0216666666667	0	n/a	296414	KeyDown	41324	1	Little	25
494.2700000000000	0	n/a	296563	KeyDown	41324	3	Middle	25
494.5083333333334	0	n/a	296706	KeyDown	41324	2	Ring	25
495.2300000000000	0	n/a	297139	KeyDown	41324	4	Index	25
495.6366666666667	0	n/a	297383	KeyDown	41324	4	Index	25
495.8950000000000	0	n/a	297538	KeyDown	41324	1	Little	25
496.1566666666667	0	n/a	297695	KeyDown	41324	3	Middle	25
496.4316666666667	0	n/a	297860	KeyDown	41324	2	Ring	25
496.7150000000000	0	n/a	298030	KeyDown	41324	4	Index	25
497.0283333333334	0	n/a	298218	KeyDown	41324	4	Index	25
497.3033333333333	0	n/a	298383	KeyDown	41324	1	Little	25
497.6016666666667	0	n/a	298562	KeyDown	41324	3	Middle	25
497.8000000000000	0	n/a	298681	KeyDown	41324	2	Ring	25
499.0000000000001	0	n/a	299401	KeyDown	41324	4	Index	25
499.3566666666667	0	n/a	299615	KeyDown	41324	4	Index	25
499.6750000000000	0	n/a	299806	KeyDown	41324	1	Little	25
499.7666666666667	0	n/a	299861	StopPractice	41324	n/a	n/a	25
499.7683333333334	0	n/a	299862	StartRest	XXXXX	n/a	n/a	25
509.8016666666667	0	n/a	305882	StopRest	XXXXX	n/a	n/a	25
509.8033333333333	0	UPPT001	305883	StartPractice	41324	n/a	n/a	26
511.0016666666667	0	n/a	306602	KeyDown	41324	4	Index	26
511.2150000000000	0	n/a	306730	KeyDown	41324	1	Little	26
511.4316666666667	0	n/a	306860	KeyDown	41324	3	Middle	26
511.6233333333334	0	n/a	306975	KeyDown	41324	2	Ring	26
511.8300000000000	0	n/a	307099	KeyDown	41324	4	Index	26
512.0516666666667	0	n/a	307232	KeyDown	41324	4	Index	26
512.2200000000000	0	n/a	307333	KeyDown	41324	1	Little	26
512.4216666666667	0	n/a	307454	KeyDown	41324	3	Middle	26
512.5900000000000	0	n/a	307555	KeyDown	41324	2	Ring	26
512.7816666666668	0	n/a	307670	KeyDown	41324	4	Index	26
513.0050000000000	0	n/a	307804	KeyDown	41324	4	Index	26
513.1633333333334	0	n/a	307899	KeyDown	41324	1	Little	26
513.4766666666667	0	n/a	308087	KeyDown	41324	3	Middle	26
513.6566666666668	0	n/a	308195	KeyDown	41324	2	Ring	26
513.8400000000000	0	n/a	308305	KeyDown	41324	4	Index	26
514.0700000000001	0	n/a	308443	KeyDown	41324	4	Index	26
514.2366666666667	0	n/a	308543	KeyDown	41324	1	Little	26
514.4766666666667	0	n/a	308687	KeyDown	41324	3	Middle	26
514.6466666666666	0	n/a	308789	KeyDown	41324	2	Ring	26
514.8466666666667	0	n/a	308909	KeyDown	41324	4	Index	26
515.0700000000001	0	n/a	309043	KeyDown	41324	4	Index	26
515.3900000000000	0	n/a	309235	KeyDown	41324	1	Little	26
515.9600000000000	0	n/a	309577	KeyDown	41324	3	Middle	26
516.1200000000000	0	n/a	309673	KeyDown	41324	2	Ring	26
516.3466666666667	0	n/a	309809	KeyDown	41324	4	Index	26
516.5666666666667	0	n/a	309941	KeyDown	41324	4	Index	26
516.7766666666668	0	n/a	310067	KeyDown	41324	1	Little	26
517.0566666666667	0	n/a	310235	KeyDown	41324	3	Middle	26
517.2516666666667	0	n/a	310352	KeyDown	41324	2	Ring	26
518.0350000000001	0	n/a	310822	KeyDown	41324	4	Index	26
518.3500000000000	0	n/a	311011	KeyDown	41324	4	Index	26
518.5600000000001	0	n/a	311137	KeyDown	41324	1	Little	26
518.7883333333334	0	n/a	311274	KeyDown	41324	3	Middle	26
518.9800000000000	0	n/a	311389	KeyDown	41324	2	Ring	26
519.3766666666667	0	n/a	311627	KeyDown	41324	4	Index	26
519.6950000000001	0	n/a	311818	KeyDown	41324	4	Index	26
519.8416666666667	0	n/a	311906	StopPractice	41324	n/a	n/a	26
519.8433333333334	0	n/a	311907	StartRest	XXXXX	n/a	n/a	26
529.8766666666667	0	n/a	317927	StopRest	XXXXX	n/a	n/a	26
529.8783333333333	0	UPPT001	317928	StartPractice	41324	n/a	n/a	27
530.9800000000000	0	n/a	318589	KeyDown	41324	4	Index	27
531.1533333333334	0	n/a	318693	KeyDown	41324	1	Little	27
531.3550000000000	0	n/a	318814	KeyDown	41324	3	Middle	27
531.5383333333334	0	n/a	318924	KeyDown	41324	2	Ring	27
531.7133333333334	0	n/a	319029	KeyDown	41324	4	Index	27
531.9550000000000	0	n/a	319174	KeyDown	41324	4	Index	27
532.1283333333333	0	n/a	319278	KeyDown	41324	1	Little	27
532.3300000000000	0	n/a	319399	KeyDown	41324	3	Middle	27
532.5200000000000	0	n/a	319513	KeyDown	41324	2	Ring	27
532.7016666666667	0	n/a	319622	KeyDown	41324	4	Index	27
532.9266666666667	0	n/a	319757	KeyDown	41324	4	Index	27
533.1016666666667	0	n/a	319862	KeyDown	41324	1	Little	27
533.5483333333334	0	n/a	320130	KeyDown	41324	3	Middle	27
533.7916666666667	0	n/a	320276	KeyDown	41324	2	Ring	27
534.2500000000000	0	n/a	320551	KeyDown	41324	4	Index	27
534.6033333333334	0	n/a	320763	KeyDown	41324	4	Index	27
534.8666666666667	0	n/a	320921	KeyDown	41324	1	Little	27
535.1300000000000	0	n/a	321079	KeyDown	41324	3	Middle	27
535.3466666666667	0	n/a	321209	KeyDown	41324	2	Ring	27
535.8483333333334	0	n/a	321510	KeyDown	41324	4	Index	27
536.2083333333334	0	n/a	321726	KeyDown	41324	4	Index	27
536.4683333333334	0	n/a	321882	KeyDown	41324	1	Little	27
536.7850000000001	0	n/a	322072	KeyDown	41324	3	Middle	27
537.0583333333334	0	n/a	322236	KeyDown	41324	2	Ring	27
537.9350000000001	0	n/a	322762	KeyDown	41324	4	Index	27
539.3650000000000	0	n/a	323620	KeyDown	41324	4	Index	27
539.6300000000000	0	n/a	323779	KeyDown	41324	1	Little	27
539.8650000000000	0	n/a	323920	KeyDown	41324	3	Middle	27
539.9166666666667	0	n/a	323951	StopPractice	41324	n/a	n/a	27
539.9183333333334	0	n/a	323952	StartRest	XXXXX	n/a	n/a	27
549.9516666666667	0	n/a	329972	StopRest	XXXXX	n/a	n/a	27
549.9533333333334	0	UPPT001	329973	StartPractice	41324	n/a	n/a	28
550.5116666666667	0	n/a	330308	KeyDown	41324	4	Index	28
550.7150000000000	0	n/a	330430	KeyDown	41324	1	Little	28
550.9000000000001	0	n/a	330541	KeyDown	41324	3	Middle	28
551.0983333333334	0	n/a	330660	KeyDown	41324	2	Ring	28
551.2800000000001	0	n/a	330769	KeyDown	41324	4	Index	28
551.5100000000000	0	n/a	330907	KeyDown	41324	4	Index	28
551.6750000000001	0	n/a	331006	KeyDown	41324	1	Little	28
552.0450000000001	0	n/a	331228	KeyDown	41324	3	Middle	28
552.2250000000000	0	n/a	331336	KeyDown	41324	2	Ring	28
552.4066666666668	0	n/a	331445	KeyDown	41324	4	Index	28
552.6350000000000	0	n/a	331582	KeyDown	41324	4	Index	28
552.8166666666667	0	n/a	331691	KeyDown	41324	1	Little	28
553.1650000000001	0	n/a	331900	KeyDown	41324	3	Middle	28
553.3250000000000	0	n/a	331996	KeyDown	41324	2	Ring	28
553.5233333333333	0	n/a	332115	KeyDown	41324	4	Index	28
553.7500000000000	0	n/a	332251	KeyDown	41324	4	Index	28
554.5600000000001	0	n/a	332737	KeyDown	41324	4	Index	28
555.3566666666667	0	n/a	333215	KeyDown	41324	1	Little	28
556.2133333333334	0	n/a	333729	KeyDown	41324	3	Middle	28
556.6550000000001	0	n/a	333994	KeyDown	41324	2	Ring	28
557.0283333333334	0	n/a	334218	KeyDown	41324	4	Index	28
557.4550000000000	0	n/a	334474	KeyDown	41324	4	Index	28
557.8066666666667	0	n/a	334685	KeyDown	41324	1	Little	28
558.0966666666667	0	n/a	334859	KeyDown	41324	3	Middle	28
558.3000000000001	0	n/a	334981	KeyDown	41324	2	Ring	28
558.5450000000001	0	n/a	335128	KeyDown	41324	4	Index	28
558.8066666666667	0	n/a	335285	KeyDown	41324	4	Index	28
559.0150000000000	0	n/a	335410	KeyDown	41324	1	Little	28
559.2350000000000	0	n/a	335542	KeyDown	41324	3	Middle	28
559.4316666666667	0	n/a	335660	KeyDown	41324	2	Ring	28
559.6700000000001	0	n/a	335803	KeyDown	41324	4	Index	28
559.9050000000001	0	n/a	335944	KeyDown	41324	4	Index	28
559.9916666666667	0	n/a	335996	StopPractice	41324	n/a	n/a	28
559.9933333333333	0	n/a	335997	StartRest	XXXXX	n/a	n/a	28
570.0250000000001	0	n/a	342016	StopRest	XXXXX	n/a	n/a	28
570.0266666666668	0	UPPT001	342017	StartPractice	41324	n/a	n/a	29
570.5283333333334	0	n/a	342318	KeyDown	41324	4	Index	29
570.8283333333334	0	n/a	342498	KeyDown	41324	1	Little	29
571.1100000000000	0	n/a	342667	KeyDown	41324	3	Middle	29
571.3333333333334	0	n/a	342801	KeyDown	41324	2	Ring	29
571.5833333333334	0	n/a	342951	KeyDown	41324	4	Index	29
571.8633333333333	0	n/a	343119	KeyDown	41324	4	Index	29
572.0950000000000	0	n/a	343258	KeyDown	41324	1	Little	29
572.3183333333334	0	n/a	343392	KeyDown	41324	3	Middle	29
572.5383333333334	0	n/a	343524	KeyDown	41324	2	Ring	29
572.9683333333334	0	n/a	343782	KeyDown	41324	4	Index	29
573.2450000000000	0	n/a	343948	KeyDown	41324	4	Index	29
573.4650000000000	0	n/a	344080	KeyDown	41324	1	Little	29
573.7300000000000	0	n/a	344239	KeyDown	41324	3	Middle	29
573.9300000000001	0	n/a	344359	KeyDown	41324	2	Ring	29
574.6933333333334	0	n/a	344817	KeyDown	41324	4	Index	29
575.0750000000000	0	n/a	345046	KeyDown	41324	4	Index	29
575.3366666666667	0	n/a	345203	KeyDown	41324	1	Little	29
575.5733333333334	0	n/a	345345	KeyDown	41324	3	Middle	29
575.7983333333334	0	n/a	345480	KeyDown	41324	2	Ring	29
576.0533333333334	0	n/a	345633	KeyDown	41324	4	Index	29
576.3133333333334	0	n/a	345789	KeyDown	41324	4	Index	29
576.5383333333334	0	n/a	345924	KeyDown	41324	1	Little	29
576.7800000000001	0	n/a	346069	KeyDown	41324	3	Middle	29
576.9833333333333	0	n/a	346191	KeyDown	41324	2	Ring	29
577.1983333333334	0	n/a	346320	KeyDown	41324	4	Index	29
577.4583333333334	0	n/a	346476	KeyDown	41324	4	Index	29
578.2583333333333	0	n/a	346956	KeyDown	41324	1	Little	29
578.4633333333334	0	n/a	347079	KeyDown	41324	3	Middle	29
578.6683333333334	0	n/a	347202	KeyDown	41324	2	Ring	29
578.8950000000000	0	n/a	347338	KeyDown	41324	4	Index	29
579.1133333333333	0	n/a	347469	KeyDown	41324	4	Index	29
579.3550000000000	0	n/a	347614	KeyDown	41324	1	Little	29
580.0650000000001	0	n/a	348040	StopPractice	41324	n/a	n/a	29
580.0666666666667	0	n/a	348041	StartRest	XXXXX	n/a	n/a	29
590.1016666666667	0	n/a	354062	StopRest	XXXXX	n/a	n/a	29
590.1033333333334	0	UPPT001	354063	StartPractice	41324	n/a	n/a	30
590.6300000000000	0	n/a	354379	KeyDown	41324	4	Index	30
590.9933333333333	0	n/a	354597	KeyDown	41324	1	Little	30
591.2533333333333	0	n/a	354753	KeyDown	41324	3	Middle	30
591.4716666666667	0	n/a	354884	KeyDown	41324	2	Ring	30
591.7050000000000	0	n/a	355024	KeyDown	41324	4	Index	30
592.7450000000000	0	n/a	355648	KeyDown	41324	4	Index	30
593.1066666666667	0	n/a	355865	KeyDown	41324	1	Little	30
593.4000000000001	0	n/a	356041	KeyDown	41324	3	Middle	30
593.5983333333334	0	n/a	356160	KeyDown	41324	2	Ring	30
593.8366666666667	0	n/a	356303	KeyDown	41324	4	Index	30
594.0916666666667	0	n/a	356456	KeyDown	41324	4	Index	30
594.3350000000000	0	n/a	356602	KeyDown	41324	1	Little	30
594.5900000000000	0	n/a	356755	KeyDown	41324	3	Middle	30
594.7800000000001	0	n/a	356869	KeyDown	41324	2	Ring	30
595.0366666666667	0	n/a	357023	KeyDown	41324	4	Index	30
595.3216666666667	0	n/a	357194	KeyDown	41324	4	Index	30
595.5533333333334	0	n/a	357333	KeyDown	41324	1	Little	30
596.2583333333333	0	n/a	357756	KeyDown	41324	3	Middle	30
596.4400000000001	0	n/a	357865	KeyDown	41324	2	Ring	30
596.7750000000001	0	n/a	358066	KeyDown	41324	4	Index	30
597.2216666666667	0	n/a	358334	KeyDown	41324	4	Index	30
597.4650000000000	0	n/a	358480	KeyDown	41324	1	Little	30
597.7366666666667	0	n/a	358643	KeyDown	41324	3	Middle	30
597.9716666666667	0	n/a	358784	KeyDown	41324	2	Ring	30
598.7150000000000	0	n/a	359230	KeyDown	41324	4	Index	30
599.1216666666667	0	n/a	359474	KeyDown	41324	4	Index	30
599.4100000000001	0	n/a	359647	KeyDown	41324	1	Little	30
599.9616666666667	0	n/a	359978	KeyDown	41324	3	Middle	30
600.1416666666667	0	n/a	360086	StopPractice	41324	n/a	n/a	30
600.1433333333333	0	n/a	360087	StartRest	XXXXX	n/a	n/a	30
610.1750000000001	0	n/a	366106	StopRest	XXXXX	n/a	n/a	30
610.1766666666667	0	UPPT001	366107	StartPractice	41324	n/a	n/a	31
611.0800000000000	0	n/a	366649	KeyDown	41324	4	Index	31
611.3183333333334	0	n/a	366792	KeyDown	41324	1	Little	31
611.5383333333334	0	n/a	366924	KeyDown	41324	3	Middle	31
611.7283333333334	0	n/a	367038	KeyDown	41324	2	Ring	31
611.9233333333334	0	n/a	367155	KeyDown	41324	4	Index	31
612.1266666666667	0	n/a	367277	KeyDown	41324	4	Index	31
612.2983333333334	0	n/a	367380	KeyDown	41324	1	Little	31
612.5583333333334	0	n/a	367536	KeyDown	41324	3	Middle	31
612.7400000000000	0	n/a	367645	KeyDown	41324	2	Ring	31
612.9500000000000	0	n/a	367771	KeyDown	41324	4	Index	31
613.2000000000000	0	n/a	367921	KeyDown	41324	4	Index	31
613.3783333333333	0	n/a	368028	KeyDown	41324	1	Little	31
613.6666666666667	0	n/a	368201	KeyDown	41324	3	Middle	31
613.8350000000000	0	n/a	368302	KeyDown	41324	2	Ring	31
614.0433333333334	0	n/a	368427	KeyDown	41324	4	Index	31
614.2966666666667	0	n/a	368579	KeyDown	41324	4	Index	31
614.4800000000000	0	n/a	368689	KeyDown	41324	1	Little	31
614.7200000000000	0	n/a	368833	KeyDown	41324	3	Middle	31
614.9050000000001	0	n/a	368944	KeyDown	41324	2	Ring	31
615.1033333333334	0	n/a	369063	KeyDown	41324	4	Index	31
615.3133333333334	0	n/a	369189	KeyDown	41324	4	Index	31
615.5000000000000	0	n/a	369301	KeyDown	41324	1	Little	31
615.7466666666667	0	n/a	369449	KeyDown	41324	3	Middle	31
615.9733333333334	0	n/a	369585	KeyDown	41324	2	Ring	31
617.6650000000001	0	n/a	370600	KeyDown	41324	4	Index	31
617.9683333333334	0	n/a	370782	KeyDown	41324	4	Index	31
618.1733333333334	0	n/a	370905	KeyDown	41324	1	Little	31
618.3800000000000	0	n/a	371029	KeyDown	41324	3	Middle	31
618.5750000000000	0	n/a	371146	KeyDown	41324	2	Ring	31
618.7950000000001	0	n/a	371278	KeyDown	41324	4	Index	31
619.0116666666667	0	n/a	371408	KeyDown	41324	4	Index	31
619.2116666666667	0	n/a	371528	KeyDown	41324	1	Little	31
620.2150000000000	0	n/a	372130	StopPractice	41324	n/a	n/a	31
620.2166666666667	0	n/a	372131	StartRest	XXXXX	n/a	n/a	31
630.2500000000000	0	n/a	378151	StopRest	XXXXX	n/a	n/a	31
630.2516666666667	0	UPPT001	378152	StartPractice	41324	n/a	n/a	32
631.5200000000001	0	n/a	378913	KeyDown	41324	4	Index	32
631.7450000000000	0	n/a	379048	KeyDown	41324	1	Little	32
631.9750000000000	0	n/a	379186	KeyDown	41324	3	Middle	32
632.1900000000001	0	n/a	379315	KeyDown	41324	2	Ring	32
632.4166666666667	0	n/a	379451	KeyDown	41324	4	Index	32
632.6466666666668	0	n/a	379589	KeyDown	41324	4	Index	32
632.8933333333334	0	n/a	379737	KeyDown	41324	1	Little	32
633.1666666666667	0	n/a	379901	KeyDown	41324	3	Middle	32
633.3533333333334	0	n/a	380013	KeyDown	41324	2	Ring	32
633.5600000000001	0	n/a	380137	KeyDown	41324	4	Index	32
633.7750000000001	0	n/a	380266	KeyDown	41324	4	Index	32
633.9583333333334	0	n/a	380376	KeyDown	41324	1	Little	32
634.1683333333334	0	n/a	380502	KeyDown	41324	3	Middle	32
634.3450000000000	0	n/a	380608	KeyDown	41324	2	Ring	32
634.5333333333334	0	n/a	380721	KeyDown	41324	4	Index	32
634.7400000000000	0	n/a	380845	KeyDown	41324	4	Index	32
634.9516666666667	0	n/a	380972	KeyDown	41324	1	Little	32
635.2683333333334	0	n/a	381162	KeyDown	41324	3	Middle	32
635.4650000000000	0	n/a	381280	KeyDown	41324	2	Ring	32
635.6650000000001	0	n/a	381400	KeyDown	41324	4	Index	32
635.8616666666667	0	n/a	381518	KeyDown	41324	4	Index	32
636.0566666666667	0	n/a	381635	KeyDown	41324	1	Little	32
636.2850000000001	0	n/a	381772	KeyDown	41324	3	Middle	32
636.4600000000000	0	n/a	381877	KeyDown	41324	2	Ring	32
636.6450000000001	0	n/a	381988	KeyDown	41324	4	Index	32
636.8466666666667	0	n/a	382109	KeyDown	41324	4	Index	32
637.0433333333334	0	n/a	382227	KeyDown	41324	1	Little	32
637.5433333333334	0	n/a	382527	KeyDown	41324	3	Middle	32
637.7500000000000	0	n/a	382651	KeyDown	41324	2	Ring	32
637.9766666666667	0	n/a	382787	KeyDown	41324	4	Index	32
638.1866666666667	0	n/a	382913	KeyDown	41324	4	Index	32
638.3816666666667	0	n/a	383030	KeyDown	41324	1	Little	32
638.6433333333334	0	n/a	383187	KeyDown	41324	3	Middle	32
638.8583333333333	0	n/a	383316	KeyDown	41324	2	Ring	32
639.0400000000001	0	n/a	383425	KeyDown	41324	4	Index	32
639.2400000000000	0	n/a	383545	KeyDown	41324	4	Index	32
639.4250000000001	0	n/a	383656	KeyDown	41324	1	Little	32
640.1900000000001	0	n/a	384115	KeyDown	41324	3	Middle	32
640.2900000000001	0	n/a	384175	StopPractice	41324	n/a	n/a	32
640.2916666666667	0	n/a	384176	StartRest	XXXXX	n/a	n/a	32
650.3266666666667	0	n/a	390197	StopRest	XXXXX	n/a	n/a	32
650.3283333333334	0	UPPT001	390198	StartPractice	41324	n/a	n/a	33
650.9266666666667	0	n/a	390557	KeyDown	41324	4	Index	33
651.1516666666668	0	n/a	390692	KeyDown	41324	1	Little	33
651.3650000000000	0	n/a	390820	KeyDown	41324	3	Middle	33
651.5600000000001	0	n/a	390937	KeyDown	41324	2	Ring	33
651.7500000000000	0	n/a	391051	KeyDown	41324	4	Index	33
651.9350000000001	0	n/a	391162	KeyDown	41324	4	Index	33
652.1116666666667	0	n/a	391268	KeyDown	41324	1	Little	33
652.3366666666667	0	n/a	391403	KeyDown	41324	3	Middle	33
652.5450000000001	0	n/a	391528	KeyDown	41324	2	Ring	33
653.0616666666667	0	n/a	391838	KeyDown	41324	4	Index	33
653.3400000000000	0	n/a	392005	KeyDown	41324	4	Index	33
653.5116666666667	0	n/a	392108	KeyDown	41324	1	Little	33
653.7650000000000	0	n/a	392260	KeyDown	41324	3	Middle	33
653.9616666666667	0	n/a	392378	KeyDown	41324	2	Ring	33
654.1600000000001	0	n/a	392497	KeyDown	41324	4	Index	33
654.3616666666667	0	n/a	392618	KeyDown	41324	4	Index	33
654.5650000000001	0	n/a	392740	KeyDown	41324	1	Little	33
654.7866666666667	0	n/a	392873	KeyDown	41324	3	Middle	33
654.9733333333334	0	n/a	392985	KeyDown	41324	2	Ring	33
655.1766666666667	0	n/a	393107	KeyDown	41324	4	Index	33
655.9216666666667	0	n/a	393554	KeyDown	41324	4	Index	33
656.2700000000001	0	n/a	393763	KeyDown	41324	1	Little	33
656.5600000000001	0	n/a	393937	KeyDown	41324	3	Middle	33
656.7566666666667	0	n/a	394055	KeyDown	41324	2	Ring	33
657.0000000000000	0	n/a	394201	KeyDown	41324	4	Index	33
657.2283333333334	0	n/a	394338	KeyDown	41324	4	Index	33
657.4366666666667	0	n/a	394463	KeyDown	41324	1	Little	33
658.0566666666667	0	n/a	394835	KeyDown	41324	3	Middle	33
658.2766666666668	0	n/a	394967	KeyDown	41324	2	Ring	33
658.5000000000000	0	n/a	395101	KeyDown	41324	4	Index	33
658.7183333333334	0	n/a	395232	KeyDown	41324	4	Index	33
658.9150000000001	0	n/a	395350	KeyDown	41324	1	Little	33
659.2300000000000	0	n/a	395539	KeyDown	41324	3	Middle	33
659.4400000000001	0	n/a	395665	KeyDown	41324	2	Ring	33
659.6650000000001	0	n/a	395800	KeyDown	41324	4	Index	33
659.9166666666667	0	n/a	395951	KeyDown	41324	4	Index	33
660.1016666666667	0	n/a	396062	KeyDown	41324	1	Little	33
660.3283333333334	0	n/a	396198	KeyDown	41324	3	Middle	33
660.3666666666667	0	n/a	396221	StopPractice	41324	n/a	n/a	33
660.3683333333333	0	n/a	396222	StartRest	XXXXX	n/a	n/a	33
670.4000000000001	0	n/a	402241	StopRest	XXXXX	n/a	n/a	33
670.4016666666668	0	UPPT001	402242	StartPractice	41324	n/a	n/a	34
670.9566666666667	0	n/a	402575	KeyDown	41324	4	Index	34
671.1800000000001	0	n/a	402709	KeyDown	41324	1	Little	34
671.3900000000000	0	n/a	402835	KeyDown	41324	3	Middle	34
671.5783333333334	0	n/a	402948	KeyDown	41324	2	Ring	34
671.7666666666668	0	n/a	403061	KeyDown	41324	4	Index	34
671.9550000000000	0	n/a	403174	KeyDown	41324	4	Index	34
672.1150000000000	0	n/a	403270	KeyDown	41324	1	Little	34
672.3350000000000	0	n/a	403402	KeyDown	41324	3	Middle	34
672.5233333333334	0	n/a	403515	KeyDown	41324	2	Ring	34
672.7050000000000	0	n/a	403624	KeyDown	41324	4	Index	34
672.9166666666667	0	n/a	403751	KeyDown	41324	4	Index	34
673.0683333333334	0	n/a	403842	KeyDown	41324	1	Little	34
673.3083333333334	0	n/a	403986	KeyDown	41324	3	Middle	34
673.4933333333333	0	n/a	404097	KeyDown	41324	2	Ring	34
673.6833333333334	0	n/a	404211	KeyDown	41324	4	Index	34
674.0450000000001	0	n/a	404428	KeyDown	41324	4	Index	34
674.4216666666667	0	n/a	404654	KeyDown	41324	1	Little	34
674.7683333333334	0	n/a	404862	KeyDown	41324	3	Middle	34
674.9566666666667	0	n/a	404975	KeyDown	41324	2	Ring	34
675.1666666666667	0	n/a	405101	KeyDown	41324	4	Index	34
675.3733333333333	0	n/a	405225	KeyDown	41324	4	Index	34
675.6816666666667	0	n/a	405410	KeyDown	41324	1	Little	34
676.2583333333333	0	n/a	405756	KeyDown	41324	3	Middle	34
676.4400000000001	0	n/a	405865	KeyDown	41324	2	Ring	34
676.6716666666667	0	n/a	406004	KeyDown	41324	4	Index	34
676.8650000000000	0	n/a	406120	KeyDown	41324	4	Index	34
677.2833333333334	0	n/a	406371	KeyDown	41324	1	Little	34
677.6500000000001	0	n/a	406591	KeyDown	41324	3	Middle	34
677.8500000000000	0	n/a	406711	KeyDown	41324	2	Ring	34
678.0533333333334	0	n/a	406833	KeyDown	41324	4	Index	34
678.4750000000000	0	n/a	407086	KeyDown	41324	4	Index	34
679.4900000000000	0	n/a	407695	KeyDown	41324	1	Little	34
679.8483333333334	0	n/a	407910	KeyDown	41324	3	Middle	34
680.0800000000000	0	n/a	408049	KeyDown	41324	2	Ring	34
680.3233333333334	0	n/a	408195	KeyDown	41324	4	Index	34
680.4400000000001	0	n/a	408265	StopPractice	41324	n/a	n/a	34
680.4416666666667	0	n/a	408266	StartRest	XXXXX	n/a	n/a	34
690.4750000000000	0	n/a	414286	StopRest	XXXXX	n/a	n/a	34
690.4766666666667	0	UPPT001	414287	StartPractice	41324	n/a	n/a	35
691.0550000000001	0	n/a	414634	KeyDown	41324	4	Index	35
691.3050000000001	0	n/a	414784	KeyDown	41324	1	Little	35
691.5750000000000	0	n/a	414946	KeyDown	41324	3	Middle	35
691.7850000000001	0	n/a	415072	KeyDown	41324	2	Ring	35
692.0083333333333	0	n/a	415206	KeyDown	41324	4	Index	35
692.2600000000000	0	n/a	415357	KeyDown	41324	4	Index	35
692.4550000000000	0	n/a	415474	KeyDown	41324	1	Little	35
692.6866666666667	0	n/a	415613	KeyDown	41324	3	Middle	35
692.8800000000000	0	n/a	415729	KeyDown	41324	2	Ring	35
693.3750000000000	0	n/a	416026	KeyDown	41324	4	Index	35
693.6433333333334	0	n/a	416187	KeyDown	41324	4	Index	35
693.8400000000000	0	n/a	416305	KeyDown	41324	1	Little	35
694.1100000000000	0	n/a	416467	KeyDown	41324	3	Middle	35
694.3283333333334	0	n/a	416598	KeyDown	41324	2	Ring	35
694.5850000000000	0	n/a	416752	KeyDown	41324	4	Index	35
695.0933333333334	0	n/a	417057	KeyDown	41324	4	Index	35
695.4850000000000	0	n/a	417292	KeyDown	41324	1	Little	35
695.8483333333334	0	n/a	417510	KeyDown	41324	3	Middle	35
696.1283333333333	0	n/a	417678	KeyDown	41324	2	Ring	35
696.4350000000001	0	n/a	417862	KeyDown	41324	4	Index	35
697.9300000000001	0	n/a	418759	KeyDown	41324	4	Index	35
698.3150000000001	0	n/a	418990	KeyDown	41324	1	Little	35
698.8766666666667	0	n/a	419327	KeyDown	41324	3	Middle	35
699.2600000000000	0	n/a	419557	KeyDown	41324	2	Ring	35
699.7333333333333	0	n/a	419841	KeyDown	41324	4	Index	35
700.1950000000001	0	n/a	420118	KeyDown	41324	4	Index	35
700.5150000000001	0	n/a	420310	StopPractice	41324	n/a	n/a	35
700.5166666666668	0	n/a	420311	StartRest	XXXXX	n/a	n/a	35
710.5500000000001	0	n/a	426331	StopRest	XXXXX	n/a	n/a	35
710.5516666666667	0	UPPT001	426332	StartPractice	41324	n/a	n/a	36
711.0000000000000	0	n/a	426601	KeyDown	41324	4	Index	36
711.1700000000001	0	n/a	426703	KeyDown	41324	1	Little	36
711.3800000000000	0	n/a	426829	KeyDown	41324	3	Middle	36
711.5450000000001	0	n/a	426928	KeyDown	41324	2	Ring	36
711.7550000000000	0	n/a	427054	KeyDown	41324	4	Index	36
711.9583333333334	0	n/a	427176	KeyDown	41324	4	Index	36
712.1583333333334	0	n/a	427296	KeyDown	41324	1	Little	36
712.4533333333334	0	n/a	427473	KeyDown	41324	3	Middle	36
712.6350000000000	0	n/a	427582	KeyDown	41324	2	Ring	36
712.8316666666667	0	n/a	427700	KeyDown	41324	4	Index	36
713.5700000000001	0	n/a	428143	KeyDown	41324	4	Index	36
713.8333333333334	0	n/a	428301	KeyDown	41324	1	Little	36
714.1100000000000	0	n/a	428467	KeyDown	41324	3	Middle	36
714.3166666666667	0	n/a	428591	KeyDown	41324	2	Ring	36
714.5700000000001	0	n/a	428743	KeyDown	41324	4	Index	36
714.9350000000001	0	n/a	428962	KeyDown	41324	4	Index	36
715.3150000000001	0	n/a	429190	KeyDown	41324	1	Little	36
715.6516666666668	0	n/a	429392	KeyDown	41324	3	Middle	36
715.8600000000000	0	n/a	429517	KeyDown	41324	2	Ring	36
716.1133333333333	0	n/a	429669	KeyDown	41324	4	Index	36
716.4100000000001	0	n/a	429847	KeyDown	41324	4	Index	36
717.1683333333334	0	n/a	430302	KeyDown	41324	1	Little	36
717.4933333333333	0	n/a	430497	KeyDown	41324	3	Middle	36
717.8116666666667	0	n/a	430688	KeyDown	41324	2	Ring	36
718.3433333333334	0	n/a	431007	KeyDown	41324	4	Index	36
718.7300000000000	0	n/a	431239	KeyDown	41324	4	Index	36
719.6033333333334	0	n/a	431763	KeyDown	41324	1	Little	36
719.9866666666667	0	n/a	431993	KeyDown	41324	3	Middle	36
720.2900000000001	0	n/a	432175	KeyDown	41324	2	Ring	36
720.5583333333334	0	n/a	432336	KeyDown	41324	4	Index	36
720.5900000000000	0	n/a	432355	StopPractice	41324	n/a	n/a	36
720.5916666666667	0	n/a	432356	StartRest	XXXXX	n/a	n/a	36
730.6266666666667	0	n/a	438377	StopRest	XXXXX	n/a	n/a	36
