onset	duration	channel	onset_sample_idx	event_type	target_sequence	keypress_id	finger_label	trial_number
13.4433333333333	0	UPPT001	8067	StartPractice	41324	n/a	n/a	1
13.9516666666667	0	n/a	8372	KeyDown	41324	4	Index	1
14.0933333333333	0	n/a	8457	KeyDown	41324	1	Little	1
14.2500000000000	0	n/a	8551	KeyDown	41324	2	Ring	1
14.4283333333333	0	n/a	8658	KeyDown	41324	3	Middle	1
14.5966666666667	0	n/a	8759	KeyDown	41324	4	Index	1
14.9316666666667	0	n/a	8960	KeyDown	41324	4	Index	1
15.0733333333333	0	n/a	9045	KeyDown	41324	1	Little	1
15.2166666666667	0	n/a	9131	KeyDown	41324	2	Ring	1
15.3966666666667	0	n/a	9239	KeyDown	41324	3	Middle	1
15.5400000000000	0	n/a	9325	KeyDown	41324	4	Index	1
15.8266666666667	0	n/a	9497	KeyDown	41324	4	Index	1
15.9583333333333	0	n/a	9576	KeyDown	41324	1	Little	1
16.1150000000000	0	n/a	9670	KeyDown	41324	2	Ring	1
16.2400000000000	0	n/a	9745	KeyDown	41324	3	Middle	1
16.3950000000000	0	n/a	9838	KeyDown	41324	4	Index	1
16.6933333333333	0	n/a	10017	KeyDown	41324	4	Index	1
16.8450000000000	0	n/a	10108	KeyDown	41324	1	Little	1
16.9866666666667	0	n/a	10193	KeyDown	41324	2	Ring	1
17.1250000000000	0	n/a	10276	KeyDown	41324	3	Middle	1
17.2266666666667	0	n/a	10337	KeyDown	41324	4	Index	1
17.5316666666667	0	n/a	10520	KeyDown	41324	4	Index	1
17.6800000000000	0	n/a	10609	KeyDown	41324	1	Little	1
17.8483333333333	0	n/a	10710	KeyDown	41324	2	Ring	1
18.1416666666667	0	n/a	10886	KeyDown	41324	4	Index	1
18.7450000000000	0	n/a	11248	KeyDown	41324	4	Index	1
18.8700000000000	0	n/a	11323	KeyDown	41324	1	Little	1
19.0200000000000	0	n/a	11413	KeyDown	41324	3	Middle	1
19.1650000000000	0	n/a	11500	KeyDown	41324	2	Ring	1
19.3350000000000	0	n/a	11602	KeyDown	41324	1	Little	1
20.3583333333333	0	n/a	12216	KeyDown	41324	4	Index	1
20.5916666666667	0	n/a	12356	KeyDown	41324	1	Little	1
20.8250000000000	0	n/a	12496	KeyDown	41324	3	Middle	1
20.9800000000000	0	n/a	12589	KeyDown	41324	2	Ring	1
21.2133333333333	0	n/a	12729	KeyDown	41324	4	Index	1
21.5433333333333	0	n/a	12927	KeyDown	41324	4	Index	1
21.6916666666667	0	n/a	13016	KeyDown	41324	1	Little	1
21.8716666666667	0	n/a	13124	KeyDown	41324	3	Middle	1
22.0150000000000	0	n/a	13210	KeyDown	41324	2	Ring	1
22.2083333333333	0	n/a	13326	KeyDown	41324	4	Index	1
22.5300000000000	0	n/a	13519	KeyDown	41324	4	Index	1
22.6816666666667	0	n/a	13610	KeyDown	41324	1	Little	1
22.8366666666667	0	n/a	13703	KeyDown	41324	3	Middle	1
23.0100000000000	0	n/a	13807	KeyDown	41324	2	Ring	1
23.1733333333333	0	n/a	13905	KeyDown	41324	4	Index	1
23.4883333333333	0	n/a	14094	StopPractice	41324	n/a	n/a	1
23.4900000000000	0	n/a	14095	StartRest	XXXXX	n/a	n/a	1
33.5050000000000	0	n/a	20104	StopRest	XXXXX	n/a	n/a	1
33.5066666666667	0	UPPT001	20105	StartPractice	41324	n/a	n/a	2
35.2933333333333	0	n/a	21177	KeyDown	41324	4	Index	2
35.4033333333333	0	n/a	21243	KeyDown	41324	1	Little	2
35.6100000000000	0	n/a	21367	KeyDown	41324	3	Middle	2
35.7716666666667	0	n/a	21464	KeyDown	41324	2	Ring	2
35.9550000000000	0	n/a	21574	KeyDown	41324	4	Index	2
36.2833333333333	0	n/a	21771	KeyDown	41324	4	Index	2
36.4550000000000	0	n/a	21874	KeyDown	41324	1	Little	2
36.6183333333333	0	n/a	21972	KeyDown	41324	3	Middle	2
36.7833333333333	0	n/a	22071	KeyDown	41324	2	Ring	2
36.9800000000000	0	n/a	22189	KeyDown	41324	4	Index	2
37.3133333333333	0	n/a	22389	KeyDown	41324	4	Index	2
37.4816666666667	0	n/a	22490	KeyDown	41324	1	Little	2
37.6300000000000	0	n/a	22579	KeyDown	41324	3	Middle	2
37.8000000000000	0	n/a	22681	KeyDown	41324	2	Ring	2
37.9766666666667	0	n/a	22787	KeyDown	41324	4	Index	2
38.2900000000000	0	n/a	22975	KeyDown	41324	4	Index	2
38.4583333333333	0	n/a	23076	KeyDown	41324	1	Little	2
38.6183333333333	0	n/a	23172	KeyDown	41324	3	Middle	2
38.7933333333333	0	n/a	23277	KeyDown	41324	2	Ring	2
38.9666666666667	0	n/a	23381	KeyDown	41324	4	Index	2
39.2550000000000	0	n/a	23554	KeyDown	41324	4	Index	2
39.4066666666667	0	n/a	23645	KeyDown	41324	1	Little	2
39.5633333333333	0	n/a	23739	KeyDown	41324	3	Middle	2
39.7200000000000	0	n/a	23833	KeyDown	41324	2	Ring	2
39.8850000000000	0	n/a	23932	KeyDown	41324	4	Index	2
40.1833333333333	0	n/a	24111	KeyDown	41324	4	Index	2
40.3683333333333	0	n/a	24222	KeyDown	41324	1	Little	2
40.5083333333333	0	n/a	24306	KeyDown	41324	3	Middle	2
40.6583333333333	0	n/a	24396	KeyDown	41324	2	Ring	2
40.8166666666667	0	n/a	24491	KeyDown	41324	4	Index	2
41.1150000000000	0	n/a	24670	KeyDown	41324	4	Index	2
41.2683333333333	0	n/a	24762	KeyDown	41324	1	Little	2
41.4400000000000	0	n/a	24865	KeyDown	41324	3	Middle	2
41.6700000000000	0	n/a	25003	KeyDown	41324	2	Ring	2
41.8200000000000	0	n/a	25093	KeyDown	41324	4	Index	2
42.1766666666667	0	n/a	25307	KeyDown	41324	4	Index	2
42.3050000000000	0	n/a	25384	KeyDown	41324	1	Little	2
42.4883333333333	0	n/a	25494	KeyDown	41324	3	Middle	2
42.6250000000000	0	n/a	25576	KeyDown	41324	2	Ring	2
42.7850000000000	0	n/a	25672	KeyDown	41324	4	Index	2
43.1166666666667	0	n/a	25871	KeyDown	41324	4	Index	2
43.2383333333333	0	n/a	25944	KeyDown	41324	1	Little	2
43.4083333333333	0	n/a	26046	KeyDown	41324	3	Middle	2
43.5516666666667	0	n/a	26132	StopPractice	41324	n/a	n/a	2
43.5533333333333	0	n/a	26133	StartRest	XXXXX	n/a	n/a	2
53.5783333333333	0	n/a	32148	StopRest	XXXXX	n/a	n/a	2
53.5800000000000	0	UPPT001	32149	StartPractice	41324	n/a	n/a	3
54.2300000000000	0	n/a	32539	KeyDown	41324	4	Index	3
54.3633333333333	0	n/a	32619	KeyDown	41324	1	Little	3
54.5233333333333	0	n/a	32715	KeyDown	41324	3	Middle	3
54.6316666666667	0	n/a	32780	KeyDown	41324	2	Ring	3
54.8133333333333	0	n/a	32889	KeyDown	41324	4	Index	3
55.1033333333333	0	n/a	33063	KeyDown	41324	4	Index	3
55.2366666666667	0	n/a	33143	KeyDown	41324	1	Little	3
55.3566666666667	0	n/a	33215	KeyDown	41324	3	Middle	3
55.4950000000000	0	n/a	33298	KeyDown	41324	2	Ring	3
55.6616666666667	0	n/a	33398	KeyDown	41324	4	Index	3
55.9500000000000	0	n/a	33571	KeyDown	41324	4	Index	3
56.0816666666667	0	n/a	33650	KeyDown	41324	1	Little	3
56.1833333333333	0	n/a	33711	KeyDown	41324	3	Middle	3
56.3216666666667	0	n/a	33794	KeyDown	41324	2	Ring	3
56.4716666666667	0	n/a	33884	KeyDown	41324	4	Index	3
56.8033333333333	0	n/a	34083	KeyDown	41324	4	Index	3
56.9316666666667	0	n/a	34160	KeyDown	41324	1	Little	3
57.0600000000000	0	n/a	34237	KeyDown	41324	3	Middle	3
57.1983333333333	0	n/a	34320	KeyDown	41324	2	Ring	3
57.3450000000000	0	n/a	34408	KeyDown	41324	4	Index	3
57.6400000000000	0	n/a	34585	KeyDown	41324	4	Index	3
57.7966666666667	0	n/a	34679	KeyDown	41324	1	Little	3
57.9416666666667	0	n/a	34766	KeyDown	41324	3	Middle	3
58.0766666666667	0	n/a	34847	KeyDown	41324	2	Ring	3
58.2066666666667	0	n/a	34925	KeyDown	41324	4	Index	3
58.5083333333333	0	n/a	35106	KeyDown	41324	4	Index	3
58.6516666666667	0	n/a	35192	KeyDown	41324	1	Little	3
58.7850000000000	0	n/a	35272	KeyDown	41324	3	Middle	3
58.9233333333333	0	n/a	35355	KeyDown	41324	2	Ring	3
59.0716666666667	0	n/a	35444	KeyDown	41324	4	Index	3
59.3550000000000	0	n/a	35614	KeyDown	41324	4	Index	3
59.4933333333333	0	n/a	35697	KeyDown	41324	1	Little	3
59.6083333333333	0	n/a	35766	KeyDown	41324	3	Middle	3
59.7750000000000	0	n/a	35866	KeyDown	41324	2	Ring	3
59.9150000000000	0	n/a	35950	KeyDown	41324	4	Index	3
60.2016666666667	0	n/a	36122	KeyDown	41324	4	Index	3
60.3383333333333	0	n/a	36204	KeyDown	41324	1	Little	3
60.4833333333333	0	n/a	36291	KeyDown	41324	3	Middle	3
60.6216666666667	0	n/a	36374	KeyDown	41324	2	Ring	3
60.7483333333333	0	n/a	36450	KeyDown	41324	4	Index	3
61.0466666666667	0	n/a	36629	KeyDown	41324	4	Index	3
61.1816666666667	0	n/a	36710	KeyDown	41324	1	Little	3
61.3083333333333	0	n/a	36786	KeyDown	41324	3	Middle	3
61.4416666666667	0	n/a	36866	KeyDown	41324	2	Ring	3
61.5816666666667	0	n/a	36950	KeyDown	41324	4	Index	3
61.8600000000000	0	n/a	37117	KeyDown	41324	4	Index	3
62.0150000000000	0	n/a	37210	KeyDown	41324	1	Little	3
62.1583333333333	0	n/a	37296	KeyDown	41324	3	Middle	3
62.3066666666667	0	n/a	37385	KeyDown	41324	2	Ring	3
62.4283333333333	0	n/a	37458	KeyDown	41324	4	Index	3
62.7333333333333	0	n/a	37641	KeyDown	41324	4	Index	3
62.9283333333333	0	n/a	37758	KeyDown	41324	1	Little	3
63.0833333333333	0	n/a	37851	KeyDown	41324	3	Middle	3
63.2333333333333	0	n/a	37941	KeyDown	41324	2	Ring	3
63.3716666666667	0	n/a	38024	KeyDown	41324	4	Index	3
63.6250000000000	0	n/a	38176	StopPractice	41324	n/a	n/a	3
63.6266666666667	0	n/a	38177	StartRest	XXXXX	n/a	n/a	3
73.6700000000000	0	n/a	44203	StopRest	XXXXX	n/a	n/a	3
73.6716666666667	0	UPPT001	44204	StartPractice	41324	n/a	n/a	4
74.1450000000000	0	n/a	44488	KeyDown	41324	4	Index	4
74.2800000000000	0	n/a	44569	KeyDown	41324	1	Little	4
74.4400000000000	0	n/a	44665	KeyDown	41324	3	Middle	4
74.5650000000000	0	n/a	44740	KeyDown	41324	2	Ring	4
74.7050000000000	0	n/a	44824	KeyDown	41324	4	Index	4
74.9716666666667	0	n/a	44984	KeyDown	41324	4	Index	4
75.1033333333333	0	n/a	45063	KeyDown	41324	1	Little	4
75.2266666666667	0	n/a	45137	KeyDown	41324	3	Middle	4
75.3633333333333	0	n/a	45219	KeyDown	41324	2	Ring	4
75.5283333333333	0	n/a	45318	KeyDown	41324	4	Index	4
75.8133333333333	0	n/a	45489	KeyDown	41324	4	Index	4
75.9450000000000	0	n/a	45568	KeyDown	41324	1	Little	4
76.0800000000000	0	n/a	45649	KeyDown	41324	3	Middle	4
76.2133333333333	0	n/a	45729	KeyDown	41324	2	Ring	4
76.3683333333333	0	n/a	45822	KeyDown	41324	4	Index	4
76.6500000000000	0	n/a	45991	KeyDown	41324	4	Index	4
76.7766666666667	0	n/a	46067	KeyDown	41324	1	Little	4
76.9250000000000	0	n/a	46156	KeyDown	41324	3	Middle	4
77.0800000000000	0	n/a	46249	KeyDown	41324	2	Ring	4
77.2266666666667	0	n/a	46337	KeyDown	41324	4	Index	4
77.5050000000000	0	n/a	46504	KeyDown	41324	4	Index	4
77.6400000000000	0	n/a	46585	KeyDown	41324	1	Little	4
77.8016666666667	0	n/a	46682	KeyDown	41324	3	Middle	4
77.9316666666667	0	n/a	46760	KeyDown	41324	2	Ring	4
78.0833333333333	0	n/a	46851	KeyDown	41324	4	Index	4
78.3783333333333	0	n/a	47028	KeyDown	41324	4	Index	4
78.5166666666667	0	n/a	47111	KeyDown	41324	1	Little	4
78.6583333333333	0	n/a	47196	KeyDown	41324	3	Middle	4
78.7883333333333	0	n/a	47274	KeyDown	41324	2	Ring	4
78.9416666666667	0	n/a	47366	KeyDown	41324	4	Index	4
79.2183333333333	0	n/a	47532	KeyDown	41324	4	Index	4
79.3383333333333	0	n/a	47604	KeyDown	41324	1	Little	4
79.5033333333333	0	n/a	47703	KeyDown	41324	3	Middle	4
79.6183333333333	0	n/a	47772	KeyDown	41324	2	Ring	4
79.7750000000000	0	n/a	47866	KeyDown	41324	4	Index	4
80.0616666666667	0	n/a	48038	KeyDown	41324	4	Index	4
80.1833333333333	0	n/a	48111	KeyDown	41324	1	Little	4
80.3433333333333	0	n/a	48207	KeyDown	41324	3	Middle	4
80.4783333333333	0	n/a	48288	KeyDown	41324	2	Ring	4
80.6283333333333	0	n/a	48378	KeyDown	41324	4	Index	4
80.9100000000000	0	n/a	48547	KeyDown	41324	4	Index	4
81.0383333333333	0	n/a	48624	KeyDown	41324	1	Little	4
81.1833333333333	0	n/a	48711	KeyDown	41324	3	Middle	4
81.3150000000000	0	n/a	48790	KeyDown	41324	2	Ring	4
81.4600000000000	0	n/a	48877	KeyDown	41324	4	Index	4
81.7483333333333	0	n/a	49050	KeyDown	41324	4	Index	4
81.9050000000000	0	n/a	49144	KeyDown	41324	1	Little	4
82.0283333333333	0	n/a	49218	KeyDown	41324	3	Middle	4
82.1633333333333	0	n/a	49299	KeyDown	41324	2	Ring	4
82.3200000000000	0	n/a	49393	KeyDown	41324	4	Index	4
82.6150000000000	0	n/a	49570	KeyDown	41324	4	Index	4
82.7566666666667	0	n/a	49655	KeyDown	41324	1	Little	4
82.9016666666667	0	n/a	49742	KeyDown	41324	3	Middle	4
83.0433333333333	0	n/a	49827	KeyDown	41324	2	Ring	4
83.2050000000000	0	n/a	49924	KeyDown	41324	4	Index	4
83.4816666666667	0	n/a	50090	KeyDown	41324	4	Index	4
83.5916666666667	0	n/a	50156	KeyDown	41324	1	Little	4
83.7166666666667	0	n/a	50231	StopPractice	41324	n/a	n/a	4
83.7183333333333	0	n/a	50232	StartRest	XXXXX	n/a	n/a	4
93.7633333333333	0	n/a	56259	StopRest	XXXXX	n/a	n/a	4
93.7650000000000	0	UPPT001	56260	StartPractice	41324	n/a	n/a	5
94.2816666666667	0	n/a	56570	KeyDown	41324	4	Index	5
94.4133333333333	0	n/a	56649	KeyDown	41324	1	Little	5
94.6016666666667	0	n/a	56762	KeyDown	41324	3	Middle	5
94.7350000000000	0	n/a	56842	KeyDown	41324	2	Ring	5
94.8850000000000	0	n/a	56932	KeyDown	41324	4	Index	5
95.1633333333333	0	n/a	57099	KeyDown	41324	4	Index	5
95.2733333333333	0	n/a	57165	KeyDown	41324	1	Little	5
95.4466666666667	0	n/a	57269	KeyDown	41324	3	Middle	5
95.5716666666667	0	n/a	57344	KeyDown	41324	2	Ring	5
95.7250000000000	0	n/a	57436	KeyDown	41324	4	Index	5
96.0383333333333	0	n/a	57624	KeyDown	41324	4	Index	5
96.1783333333333	0	n/a	57708	KeyDown	41324	1	Little	5
96.3383333333333	0	n/a	57804	KeyDown	41324	3	Middle	5
96.5066666666667	0	n/a	57905	KeyDown	41324	2	Ring	5
96.6450000000000	0	n/a	57988	KeyDown	41324	4	Index	5
96.9633333333333	0	n/a	58179	KeyDown	41324	4	Index	5
97.1216666666667	0	n/a	58274	KeyDown	41324	1	Little	5
97.3000000000000	0	n/a	58381	KeyDown	41324	3	Middle	5
97.4116666666667	0	n/a	58448	KeyDown	41324	2	Ring	5
97.5816666666667	0	n/a	58550	KeyDown	41324	4	Index	5
97.8783333333333	0	n/a	58728	KeyDown	41324	4	Index	5
98.0083333333333	0	n/a	58806	KeyDown	41324	1	Little	5
98.1583333333333	0	n/a	58896	KeyDown	41324	3	Middle	5
98.2833333333333	0	n/a	58971	KeyDown	41324	2	Ring	5
98.4300000000000	0	n/a	59059	KeyDown	41324	4	Index	5
98.7416666666667	0	n/a	59246	KeyDown	41324	4	Index	5
98.8666666666667	0	n/a	59321	KeyDown	41324	1	Little	5
99.0466666666667	0	n/a	59429	KeyDown	41324	3	Middle	5
99.1583333333333	0	n/a	59496	KeyDown	41324	2	Ring	5
99.3116666666667	0	n/a	59588	KeyDown	41324	4	Index	5
99.6200000000000	0	n/a	59773	KeyDown	41324	4	Index	5
99.7566666666667	0	n/a	59855	KeyDown	41324	1	Little	5
99.9183333333333	0	n/a	59952	KeyDown	41324	3	Middle	5
100.0616666666667	0	n/a	60038	KeyDown	41324	2	Ring	5
100.2200000000000	0	n/a	60133	KeyDown	41324	4	Index	5
100.5250000000000	0	n/a	60316	KeyDown	41324	4	Index	5
100.6816666666667	0	n/a	60410	KeyDown	41324	1	Little	5
100.8200000000000	0	n/a	60493	KeyDown	41324	3	Middle	5
100.9766666666667	0	n/a	60587	KeyDown	41324	2	Ring	5
101.1383333333333	0	n/a	60684	KeyDown	41324	4	Index	5
101.4583333333333	0	n/a	60876	KeyDown	41324	4	Index	5
101.6233333333333	0	n/a	60975	KeyDown	41324	1	Little	5
101.7366666666667	0	n/a	61043	KeyDown	41324	3	Middle	5
101.9050000000000	0	n/a	61144	KeyDown	41324	2	Ring	5
102.0450000000000	0	n/a	61228	KeyDown	41324	4	Index	5
102.3533333333333	0	n/a	61413	KeyDown	41324	4	Index	5
102.5600000000000	0	n/a	61537	KeyDown	41324	1	Little	5
102.6666666666667	0	n/a	61601	KeyDown	41324	3	Middle	5
102.8116666666667	0	n/a	61688	KeyDown	41324	2	Ring	5
102.9416666666667	0	n/a	61766	KeyDown	41324	4	Index	5
103.2550000000000	0	n/a	61954	KeyDown	41324	4	Index	5
103.4883333333333	0	n/a	62094	KeyDown	41324	1	Little	5
103.5983333333333	0	n/a	62160	KeyDown	41324	3	Middle	5
103.7316666666667	0	n/a	62240	KeyDown	41324	2	Ring	5
103.8100000000000	0	n/a	62287	StopPractice	41324	n/a	n/a	5
103.8116666666667	0	n/a	62288	StartRest	XXXXX	n/a	n/a	5
113.8533333333333	0	n/a	68313	StopRest	XXXXX	n/a	n/a	5
113.8550000000000	0	UPPT001	68314	StartPractice	41324	n/a	n/a	6
114.3266666666667	0	n/a	68597	KeyDown	41324	4	Index	6
114.4783333333333	0	n/a	68688	KeyDown	41324	1	Little	6
114.6166666666667	0	n/a	68771	KeyDown	41324	3	Middle	6
114.7366666666667	0	n/a	68843	KeyDown	41324	2	Ring	6
114.8766666666667	0	n/a	68927	KeyDown	41324	4	Index	6
115.1466666666667	0	n/a	69089	KeyDown	41324	4	Index	6
115.2833333333333	0	n/a	69171	KeyDown	41324	1	Little	6
115.3783333333333	0	n/a	69228	KeyDown	41324	3	Middle	6
115.5116666666667	0	n/a	69308	KeyDown	41324	2	Ring	6
115.6666666666667	0	n/a	69401	KeyDown	41324	4	Index	6
115.9600000000000	0	n/a	69577	KeyDown	41324	4	Index	6
116.1016666666667	0	n/a	69662	KeyDown	41324	1	Little	6
116.2800000000000	0	n/a	69769	KeyDown	41324	3	Middle	6
116.3933333333333	0	n/a	69837	KeyDown	41324	2	Ring	6
116.5083333333333	0	n/a	69906	KeyDown	41324	4	Index	6
116.7866666666667	0	n/a	70073	KeyDown	41324	4	Index	6
116.9333333333333	0	n/a	70161	KeyDown	41324	1	Little	6
117.0433333333333	0	n/a	70227	KeyDown	41324	3	Middle	6
117.1716666666667	0	n/a	70304	KeyDown	41324	2	Ring	6
117.3266666666667	0	n/a	70397	KeyDown	41324	4	Index	6
117.6150000000000	0	n/a	70570	KeyDown	41324	4	Index	6
117.7416666666667	0	n/a	70646	KeyDown	41324	1	Little	6
117.8866666666667	0	n/a	70733	KeyDown	41324	3	Middle	6
118.0066666666667	0	n/a	70805	KeyDown	41324	2	Ring	6
118.1583333333333	0	n/a	70896	KeyDown	41324	4	Index	6
118.4516666666667	0	n/a	71072	KeyDown	41324	4	Index	6
118.5850000000000	0	n/a	71152	KeyDown	41324	1	Little	6
118.7200000000000	0	n/a	71233	KeyDown	41324	3	Middle	6
118.8266666666667	0	n/a	71297	KeyDown	41324	2	Ring	6
118.9766666666667	0	n/a	71387	KeyDown	41324	4	Index	6
119.2716666666667	0	n/a	71564	KeyDown	41324	4	Index	6
119.4100000000000	0	n/a	71647	KeyDown	41324	1	Little	6
119.5233333333333	0	n/a	71715	KeyDown	41324	3	Middle	6
119.6366666666667	0	n/a	71783	KeyDown	41324	2	Ring	6
119.7733333333333	0	n/a	71865	KeyDown	41324	4	Index	6
120.0866666666667	0	n/a	72053	KeyDown	41324	4	Index	6
120.1866666666667	0	n/a	72113	KeyDown	41324	1	Little	6
120.3250000000000	0	n/a	72196	KeyDown	41324	3	Middle	6
120.4316666666667	0	n/a	72260	KeyDown	41324	2	Ring	6
120.5800000000000	0	n/a	72349	KeyDown	41324	4	Index	6
120.8683333333333	0	n/a	72522	KeyDown	41324	4	Index	6
121.0083333333333	0	n/a	72606	KeyDown	41324	1	Little	6
121.1100000000000	0	n/a	72667	KeyDown	41324	3	Middle	6
121.2333333333333	0	n/a	72741	KeyDown	41324	2	Ring	6
121.3666666666667	0	n/a	72821	KeyDown	41324	4	Index	6
121.6716666666667	0	n/a	73004	KeyDown	41324	4	Index	6
121.8266666666667	0	n/a	73097	KeyDown	41324	1	Little	6
121.9416666666667	0	n/a	73166	KeyDown	41324	3	Middle	6
122.0616666666667	0	n/a	73238	KeyDown	41324	2	Ring	6
122.1716666666667	0	n/a	73304	KeyDown	41324	4	Index	6
122.4866666666667	0	n/a	73493	KeyDown	41324	4	Index	6
122.7033333333333	0	n/a	73623	KeyDown	41324	3	Middle	6
122.8666666666667	0	n/a	73721	KeyDown	41324	1	Little	6
123.0616666666667	0	n/a	73838	KeyDown	41324	2	Ring	6
123.1816666666667	0	n/a	73910	KeyDown	41324	4	Index	6
123.6050000000000	0	n/a	74164	KeyDown	41324	4	Index	6
123.7433333333333	0	n/a	74247	KeyDown	41324	1	Little	6
123.9000000000000	0	n/a	74341	StopPractice	41324	n/a	n/a	6
123.9016666666667	0	n/a	74342	StartRest	XXXXX	n/a	n/a	6
133.9450000000000	0	n/a	80368	StopRest	XXXXX	n/a	n/a	6
133.9466666666667	0	UPPT001	80369	StartPractice	41324	n/a	n/a	7
134.3683333333333	0	n/a	80622	KeyDown	41324	4	Index	7
134.5150000000000	0	n/a	80710	KeyDown	41324	1	Little	7
134.6683333333334	0	n/a	80802	KeyDown	41324	3	Middle	7
134.7683333333333	0	n/a	80862	KeyDown	41324	2	Ring	7
134.8850000000000	0	n/a	80932	KeyDown	41324	4	Index	7
135.1700000000000	0	n/a	81103	KeyDown	41324	4	Index	7
135.2916666666667	0	n/a	81176	KeyDown	41324	1	Little	7
135.4050000000000	0	n/a	81244	KeyDown	41324	3	Middle	7
135.5350000000000	0	n/a	81322	KeyDown	41324	2	Ring	7
135.6550000000000	0	n/a	81394	KeyDown	41324	4	Index	7
135.9533333333333	0	n/a	81573	KeyDown	41324	4	Index	7
136.0716666666667	0	n/a	81644	KeyDown	41324	1	Little	7
136.2100000000000	0	n/a	81727	KeyDown	41324	3	Middle	7
136.3083333333333	0	n/a	81786	KeyDown	41324	2	Ring	7
136.4566666666667	0	n/a	81875	KeyDown	41324	4	Index	7
136.7533333333333	0	n/a	82053	KeyDown	41324	4	Index	7
136.8883333333333	0	n/a	82134	KeyDown	41324	1	Little	7
137.0416666666667	0	n/a	82226	KeyDown	41324	3	Middle	7
137.1383333333333	0	n/a	82284	KeyDown	41324	2	Ring	7
137.2750000000000	0	n/a	82366	KeyDown	41324	4	Index	7
137.5983333333333	0	n/a	82560	KeyDown	41324	4	Index	7
137.7433333333333	0	n/a	82647	KeyDown	41324	1	Little	7
137.8116666666667	0	n/a	82688	KeyDown	41324	3	Middle	7
138.4833333333333	0	n/a	83091	KeyDown	41324	2	Ring	7
138.6000000000000	0	n/a	83161	KeyDown	41324	4	Index	7
139.1083333333333	0	n/a	83466	KeyDown	41324	4	Index	7
139.3100000000000	0	n/a	83587	KeyDown	41324	1	Little	7
139.5033333333333	0	n/a	83703	KeyDown	41324	3	Middle	7
139.6733333333333	0	n/a	83805	KeyDown	41324	2	Ring	7
139.8533333333334	0	n/a	83913	KeyDown	41324	4	Index	7
140.1566666666667	0	n/a	84095	KeyDown	41324	4	Index	7
140.2983333333333	0	n/a	84180	KeyDown	41324	1	Little	7
140.4883333333333	0	n/a	84294	KeyDown	41324	3	Middle	7
140.6700000000000	0	n/a	84403	KeyDown	41324	2	Ring	7
140.8150000000000	0	n/a	84490	KeyDown	41324	4	Index	7
141.1283333333333	0	n/a	84678	KeyDown	41324	4	Index	7
141.3033333333333	0	n/a	84783	KeyDown	41324	1	Little	7
141.4616666666667	0	n/a	84878	KeyDown	41324	3	Middle	7
141.5900000000000	0	n/a	84955	KeyDown	41324	2	Ring	7
141.7983333333333	0	n/a	85080	KeyDown	41324	4	Index	7
142.0933333333333	0	n/a	85257	KeyDown	41324	4	Index	7
142.2200000000000	0	n/a	85333	KeyDown	41324	1	Little	7
142.3950000000000	0	n/a	85438	KeyDown	41324	3	Middle	7
142.5466666666667	0	n/a	85529	KeyDown	41324	2	Ring	7
142.7133333333333	0	n/a	85629	KeyDown	41324	4	Index	7
143.0183333333333	0	n/a	85812	KeyDown	41324	4	Index	7
143.1583333333333	0	n/a	85896	KeyDown	41324	1	Little	7
143.3300000000000	0	n/a	85999	KeyDown	41324	3	Middle	7
143.4700000000000	0	n/a	86083	KeyDown	41324	2	Ring	7
143.6266666666667	0	n/a	86177	KeyDown	41324	4	Index	7
143.9350000000000	0	n/a	86362	KeyDown	41324	4	Index	7
143.9916666666667	0	n/a	86396	StopPractice	41324	n/a	n/a	7
143.9933333333333	0	n/a	86397	StartRest	XXXXX	n/a	n/a	7
154.0383333333334	0	n/a	92424	StopRest	XXXXX	n/a	n/a	7
154.0400000000000	0	UPPT001	92425	StartPractice	41324	n/a	n/a	8
154.3933333333333	0	n/a	92637	KeyDown	41324	4	Index	8
154.5633333333333	0	n/a	92739	KeyDown	41324	1	Little	8
154.7500000000000	0	n/a	92851	KeyDown	41324	3	Middle	8
154.8766666666667	0	n/a	92927	KeyDown	41324	2	Ring	8
155.0133333333333	0	n/a	93009	KeyDown	41324	4	Index	8
155.3050000000000	0	n/a	93184	KeyDown	41324	4	Index	8
155.4150000000000	0	n/a	93250	KeyDown	41324	1	Little	8
155.5933333333333	0	n/a	93357	KeyDown	41324	3	Middle	8
155.6783333333333	0	n/a	93408	KeyDown	41324	2	Ring	8
155.8600000000000	0	n/a	93517	KeyDown	41324	4	Index	8
156.1683333333334	0	n/a	93702	KeyDown	41324	4	Index	8
156.2850000000000	0	n/a	93772	KeyDown	41324	1	Little	8
156.4766666666667	0	n/a	93887	KeyDown	41324	3	Middle	8
156.5866666666667	0	n/a	93953	KeyDown	41324	2	Ring	8
156.7566666666667	0	n/a	94055	KeyDown	41324	4	Index	8
157.0433333333334	0	n/a	94227	KeyDown	41324	4	Index	8
157.1666666666667	0	n/a	94301	KeyDown	41324	1	Little	8
157.3483333333334	0	n/a	94410	KeyDown	41324	3	Middle	8
157.5750000000000	0	n/a	94546	KeyDown	41324	4	Index	8
158.3116666666667	0	n/a	94988	KeyDown	41324	4	Index	8
158.4416666666667	0	n/a	95066	KeyDown	41324	1	Little	8
158.6283333333333	0	n/a	95178	KeyDown	41324	3	Middle	8
158.7400000000000	0	n/a	95245	KeyDown	41324	2	Ring	8
158.9183333333334	0	n/a	95352	KeyDown	41324	4	Index	8
159.2033333333333	0	n/a	95523	KeyDown	41324	4	Index	8
159.3083333333333	0	n/a	95586	KeyDown	41324	1	Little	8
159.5150000000000	0	n/a	95710	KeyDown	41324	3	Middle	8
159.6466666666667	0	n/a	95789	KeyDown	41324	2	Ring	8
159.8366666666667	0	n/a	95903	KeyDown	41324	4	Index	8
160.1866666666667	0	n/a	96113	KeyDown	41324	4	Index	8
160.2816666666667	0	n/a	96170	KeyDown	41324	1	Little	8
160.5283333333333	0	n/a	96318	KeyDown	41324	3	Middle	8
160.6466666666667	0	n/a	96389	KeyDown	41324	2	Ring	8
160.8483333333334	0	n/a	96510	KeyDown	41324	4	Index	8
161.1883333333333	0	n/a	96714	KeyDown	41324	4	Index	8
161.3150000000000	0	n/a	96790	KeyDown	41324	1	Little	8
161.5100000000000	0	n/a	96907	KeyDown	41324	3	Middle	8
161.6266666666667	0	n/a	96977	KeyDown	41324	2	Ring	8
161.8133333333333	0	n/a	97089	KeyDown	41324	4	Index	8
162.1166666666667	0	n/a	97271	KeyDown	41324	4	Index	8
162.2300000000000	0	n/a	97339	KeyDown	41324	1	Little	8
162.4266666666667	0	n/a	97457	KeyDown	41324	3	Middle	8
162.5733333333334	0	n/a	97545	KeyDown	41324	2	Ring	8
162.7633333333333	0	n/a	97659	KeyDown	41324	4	Index	8
163.0616666666667	0	n/a	97838	KeyDown	41324	4	Index	8
163.1900000000000	0	n/a	97915	KeyDown	41324	1	Little	8
163.4033333333333	0	n/a	98043	KeyDown	41324	3	Middle	8
163.5550000000000	0	n/a	98134	KeyDown	41324	2	Ring	8
163.7183333333333	0	n/a	98232	KeyDown	41324	4	Index	8
164.0266666666667	0	n/a	98417	KeyDown	41324	4	Index	8
164.0850000000000	0	n/a	98452	StopPractice	41324	n/a	n/a	8
164.0866666666667	0	n/a	98453	StartRest	XXXXX	n/a	n/a	8
174.1283333333333	0	n/a	104478	StopRest	XXXXX	n/a	n/a	8
174.1300000000000	0	UPPT001	104479	StartPractice	41324	n/a	n/a	9
174.6233333333333	0	n/a	104775	KeyDown	41324	4	Index	9
174.7633333333333	0	n/a	104859	KeyDown	41324	1	Little	9
174.9433333333334	0	n/a	104967	KeyDown	41324	3	Middle	9
175.0450000000000	0	n/a	105028	KeyDown	41324	2	Ring	9
175.2066666666667	0	n/a	105125	KeyDown	41324	4	Index	9
175.5016666666667	0	n/a	105302	KeyDown	41324	4	Index	9
175.6000000000000	0	n/a	105361	KeyDown	41324	1	Little	9
175.7816666666667	0	n/a	105470	KeyDown	41324	3	Middle	9
175.8833333333334	0	n/a	105531	KeyDown	41324	2	Ring	9
176.0483333333333	0	n/a	105630	KeyDown	41324	4	Index	9
176.3716666666667	0	n/a	105824	KeyDown	41324	4	Index	9
176.4916666666667	0	n/a	105896	KeyDown	41324	1	Little	9
176.6700000000000	0	n/a	106003	KeyDown	41324	3	Middle	9
176.7966666666667	0	n/a	106079	KeyDown	41324	2	Ring	9
176.9450000000000	0	n/a	106168	KeyDown	41324	4	Index	9
177.2500000000000	0	n/a	106351	KeyDown	41324	4	Index	9
177.3650000000000	0	n/a	106420	KeyDown	41324	1	Little	9
177.5366666666667	0	n/a	106523	KeyDown	41324	3	Middle	9
177.6200000000000	0	n/a	106573	KeyDown	41324	2	Ring	9
177.8150000000000	0	n/a	106690	KeyDown	41324	4	Index	9
178.1050000000000	0	n/a	106864	KeyDown	41324	4	Index	9
178.2216666666667	0	n/a	106934	KeyDown	41324	1	Little	9
178.4000000000000	0	n/a	107041	KeyDown	41324	3	Middle	9
178.5000000000000	0	n/a	107101	KeyDown	41324	2	Ring	9
178.6716666666667	0	n/a	107204	KeyDown	41324	4	Index	9
178.9916666666667	0	n/a	107396	KeyDown	41324	4	Index	9
179.1033333333334	0	n/a	107463	KeyDown	41324	1	Little	9
179.3116666666667	0	n/a	107588	KeyDown	41324	3	Middle	9
179.4366666666667	0	n/a	107663	KeyDown	41324	2	Ring	9
179.5716666666667	0	n/a	107744	KeyDown	41324	4	Index	9
179.8733333333333	0	n/a	107925	KeyDown	41324	4	Index	9
180.0016666666667	0	n/a	108002	KeyDown	41324	1	Little	9
180.1650000000000	0	n/a	108100	KeyDown	41324	3	Middle	9
180.2716666666667	0	n/a	108164	KeyDown	41324	2	Ring	9
180.4350000000000	0	n/a	108262	KeyDown	41324	4	Index	9
180.7250000000000	0	n/a	108436	KeyDown	41324	4	Index	9
180.8766666666667	0	n/a	108527	KeyDown	41324	1	Little	9
181.0333333333333	0	n/a	108621	KeyDown	41324	3	Middle	9
181.1266666666667	0	n/a	108677	KeyDown	41324	2	Ring	9
181.3066666666667	0	n/a	108785	KeyDown	41324	4	Index	9
181.6250000000000	0	n/a	108976	KeyDown	41324	4	Index	9
181.7666666666667	0	n/a	109061	KeyDown	41324	1	Little	9
181.9483333333334	0	n/a	109170	KeyDown	41324	3	Middle	9
182.0766666666667	0	n/a	109247	KeyDown	41324	2	Ring	9
182.2650000000000	0	n/a	109360	KeyDown	41324	4	Index	9
182.5633333333333	0	n/a	109539	KeyDown	41324	4	Index	9
182.6933333333334	0	n/a	109617	KeyDown	41324	1	Little	9
182.8533333333334	0	n/a	109713	KeyDown	41324	3	Middle	9
182.9633333333333	0	n/a	109779	KeyDown	41324	2	Ring	9
183.1483333333333	0	n/a	109890	KeyDown	41324	4	Index	9
183.4516666666667	0	n/a	110072	KeyDown	41324	4	Index	9
183.5800000000000	0	n/a	110149	KeyDown	41324	1	Little	9
183.7266666666667	0	n/a	110237	KeyDown	41324	3	Middle	9
183.8700000000000	0	n/a	110323	KeyDown	41324	2	Ring	9
184.0416666666667	0	n/a	110426	KeyDown	41324	4	Index	9
184.1750000000000	0	n/a	110506	StopPractice	41324	n/a	n/a	9
184.1766666666667	0	n/a	110507	StartRest	XXXXX	n/a	n/a	9
194.2200000000000	0	n/a	116533	StopRest	XXXXX	n/a	n/a	9
