onset	duration	channel	onset_sample_idx	event_type	target_sequence	keypress_id	finger_label	trial_number
12.5783333333333	0	UPPT001	7548	StartPractice	41324	n/a	n/a	1
14.1666666666667	0	n/a	8501	KeyDown	41324	4	Index	1
14.6550000000000	0	n/a	8794	KeyDown	41324	1	Little	1
15.1100000000000	0	n/a	9067	KeyDown	41324	3	Middle	1
15.5666666666667	0	n/a	9341	KeyDown	41324	2	Ring	1
15.6650000000000	0	n/a	9400	KeyDown	41324	1	Little	1
16.8850000000000	0	n/a	10132	KeyDown	41324	4	Index	1
17.9000000000000	0	n/a	10741	KeyDown	41324	4	Index	1
18.3183333333333	0	n/a	10992	KeyDown	41324	1	Little	1
19.1816666666667	0	n/a	11510	KeyDown	41324	3	Middle	1
20.3733333333333	0	n/a	12225	KeyDown	41324	2	Ring	1
21.1166666666667	0	n/a	12671	KeyDown	41324	4	Index	1
22.1416666666667	0	n/a	13286	KeyDown	41324	4	Index	1
22.6166666666667	0	n/a	13571	StopPractice	41324	n/a	n/a	1
22.6183333333333	0	n/a	13572	StartRest	XXXXX	n/a	n/a	1
32.6516666666667	0	n/a	19592	StopRest	XXXXX	n/a	n/a	1
32.6533333333333	0	UPPT001	19593	StartPractice	41324	n/a	n/a	2
33.8516666666667	0	n/a	20312	KeyDown	41324	4	Index	2
34.3216666666667	0	n/a	20594	KeyDown	41324	1	Little	2
34.8650000000000	0	n/a	20920	KeyDown	41324	3	Middle	2
35.3100000000000	0	n/a	21187	KeyDown	41324	2	Ring	2
35.7766666666667	0	n/a	21467	KeyDown	41324	4	Index	2
36.2750000000000	0	n/a	21766	KeyDown	41324	4	Index	2
36.7083333333333	0	n/a	22026	KeyDown	41324	1	Little	2
37.2283333333333	0	n/a	22338	KeyDown	41324	3	Middle	2
37.6550000000000	0	n/a	22594	KeyDown	41324	2	Ring	2
38.0766666666667	0	n/a	22847	KeyDown	41324	4	Index	2
38.5333333333333	0	n/a	23121	KeyDown	41324	4	Index	2
38.9783333333333	0	n/a	23388	KeyDown	41324	1	Little	2
39.5633333333333	0	n/a	23739	KeyDown	41324	3	Middle	2
39.9566666666667	0	n/a	23975	KeyDown	41324	2	Ring	2
40.3933333333333	0	n/a	24237	KeyDown	41324	4	Index	2
40.8483333333333	0	n/a	24510	KeyDown	41324	4	Index	2
41.3300000000000	0	n/a	24799	KeyDown	41324	1	Little	2
41.9500000000000	0	n/a	25171	KeyDown	41324	3	Middle	2
42.3233333333333	0	n/a	25395	KeyDown	41324	2	Ring	2
42.6916666666667	0	n/a	25616	StopPractice	41324	n/a	n/a	2
42.6933333333333	0	n/a	25617	StartRest	XXXXX	n/a	n/a	2
52.7266666666667	0	n/a	31637	StopRest	XXXXX	n/a	n/a	2
52.7283333333333	0	UPPT001	31638	StartPractice	41324	n/a	n/a	3
53.5000000000000	0	n/a	32101	KeyDown	41324	4	Index	3
53.9216666666667	0	n/a	32354	KeyDown	41324	1	Little	3
54.3400000000000	0	n/a	32605	KeyDown	41324	3	Middle	3
54.7200000000000	0	n/a	32833	KeyDown	41324	2	Ring	3
55.1283333333333	0	n/a	33078	KeyDown	41324	4	Index	3
55.5650000000000	0	n/a	33340	KeyDown	41324	4	Index	3
55.9566666666667	0	n/a	33575	KeyDown	41324	1	Little	3
56.4016666666667	0	n/a	33842	KeyDown	41324	3	Middle	3
56.8050000000000	0	n/a	34084	KeyDown	41324	2	Ring	3
57.1933333333333	0	n/a	34317	KeyDown	41324	4	Index	3
57.6400000000000	0	n/a	34585	KeyDown	41324	4	Index	3
58.0450000000000	0	n/a	34828	KeyDown	41324	1	Little	3
58.5766666666667	0	n/a	35147	KeyDown	41324	3	Middle	3
59.0350000000000	0	n/a	35422	KeyDown	41324	2	Ring	3
59.8716666666667	0	n/a	35924	KeyDown	41324	4	Index	3
60.2533333333333	0	n/a	36153	KeyDown	41324	4	Index	3
60.6200000000000	0	n/a	36373	KeyDown	41324	1	Little	3
61.0366666666667	0	n/a	36623	KeyDown	41324	3	Middle	3
61.4000000000000	0	n/a	36841	KeyDown	41324	2	Ring	3
61.7800000000000	0	n/a	37069	KeyDown	41324	4	Index	3
62.2000000000000	0	n/a	37321	KeyDown	41324	4	Index	3
62.6250000000000	0	n/a	37576	KeyDown	41324	1	Little	3
62.7666666666667	0	n/a	37661	StopPractice	41324	n/a	n/a	3
62.7683333333333	0	n/a	37662	StartRest	XXXXX	n/a	n/a	3
72.8000000000000	0	n/a	43681	StopRest	XXXXX	n/a	n/a	3
72.8016666666667	0	UPPT001	43682	StartPractice	41324	n/a	n/a	4
73.9433333333333	0	n/a	44367	KeyDown	41324	4	Index	4
74.3100000000000	0	n/a	44587	KeyDown	41324	1	Little	4
74.7883333333333	0	n/a	44874	KeyDown	41324	3	Middle	4
75.1116666666667	0	n/a	45068	KeyDown	41324	2	Ring	4
75.4983333333333	0	n/a	45300	KeyDown	41324	4	Index	4
75.8766666666667	0	n/a	45527	KeyDown	41324	4	Index	4
76.2500000000000	0	n/a	45751	KeyDown	41324	1	Little	4
76.6983333333333	0	n/a	46020	KeyDown	41324	3	Middle	4
77.0500000000000	0	n/a	46231	KeyDown	41324	2	Ring	4
77.4266666666667	0	n/a	46457	KeyDown	41324	4	Index	4
77.8433333333333	0	n/a	46707	KeyDown	41324	4	Index	4
78.2200000000000	0	n/a	46933	KeyDown	41324	1	Little	4
78.6350000000000	0	n/a	47182	KeyDown	41324	3	Middle	4
79.0050000000000	0	n/a	47404	KeyDown	41324	2	Ring	4
79.3750000000000	0	n/a	47626	KeyDown	41324	4	Index	4
79.7866666666667	0	n/a	47873	KeyDown	41324	4	Index	4
80.1683333333333	0	n/a	48102	KeyDown	41324	1	Little	4
80.6100000000000	0	n/a	48367	KeyDown	41324	3	Middle	4
80.9700000000000	0	n/a	48583	KeyDown	41324	2	Ring	4
81.3666666666667	0	n/a	48821	KeyDown	41324	4	Index	4
81.7683333333333	0	n/a	49062	KeyDown	41324	4	Index	4
82.3366666666667	0	n/a	49403	KeyDown	41324	1	Little	4
82.7250000000000	0	n/a	49636	KeyDown	41324	3	Middle	4
82.8400000000000	0	n/a	49705	StopPractice	41324	n/a	n/a	4
82.8416666666667	0	n/a	49706	StartRest	XXXXX	n/a	n/a	4
92.8766666666667	0	n/a	55727	StopRest	XXXXX	n/a	n/a	4
92.8783333333333	0	UPPT001	55728	StartPractice	41324	n/a	n/a	5
93.8116666666667	0	n/a	56288	KeyDown	41324	4	Index	5
94.2166666666667	0	n/a	56531	KeyDown	41324	1	Little	5
94.6400000000000	0	n/a	56785	KeyDown	41324	3	Middle	5
94.9983333333333	0	n/a	57000	KeyDown	41324	2	Ring	5
95.3800000000000	0	n/a	57229	KeyDown	41324	4	Index	5
95.7683333333333	0	n/a	57462	KeyDown	41324	4	Index	5
96.1300000000000	0	n/a	57679	KeyDown	41324	1	Little	5
96.6416666666667	0	n/a	57986	KeyDown	41324	3	Middle	5
97.0416666666667	0	n/a	58226	KeyDown	41324	2	Ring	5
97.4350000000000	0	n/a	58462	KeyDown	41324	4	Index	5
97.8150000000000	0	n/a	58690	KeyDown	41324	4	Index	5
98.1650000000000	0	n/a	58900	KeyDown	41324	1	Little	5
98.5750000000000	0	n/a	59146	KeyDown	41324	3	Middle	5
98.9366666666667	0	n/a	59363	KeyDown	41324	2	Ring	5
99.3566666666667	0	n/a	59615	KeyDown	41324	4	Index	5
99.7066666666667	0	n/a	59825	KeyDown	41324	4	Index	5
100.1066666666667	0	n/a	60065	KeyDown	41324	1	Little	5
100.5066666666667	0	n/a	60305	KeyDown	41324	3	Middle	5
100.9050000000000	0	n/a	60544	KeyDown	41324	2	Ring	5
101.2800000000000	0	n/a	60769	KeyDown	41324	4	Index	5
101.6433333333333	0	n/a	60987	KeyDown	41324	1	Little	5
102.6966666666667	0	n/a	61619	KeyDown	41324	3	Middle	5
102.9166666666667	0	n/a	61751	StopPractice	41324	n/a	n/a	5
102.9183333333333	0	n/a	61752	StartRest	XXXXX	n/a	n/a	5
112.9500000000000	0	n/a	67771	StopRest	XXXXX	n/a	n/a	5
112.9516666666667	0	UPPT001	67772	StartPractice	41324	n/a	n/a	6
113.7900000000000	0	n/a	68275	KeyDown	41324	4	Index	6
114.1333333333333	0	n/a	68481	KeyDown	41324	1	Little	6
114.5400000000000	0	n/a	68725	KeyDown	41324	3	Middle	6
114.9083333333333	0	n/a	68946	KeyDown	41324	2	Ring	6
115.2883333333333	0	n/a	69174	KeyDown	41324	4	Index	6
115.6750000000000	0	n/a	69406	KeyDown	41324	4	Index	6
116.0833333333333	0	n/a	69651	KeyDown	41324	1	Little	6
116.4800000000000	0	n/a	69889	KeyDown	41324	3	Middle	6
116.8416666666667	0	n/a	70106	KeyDown	41324	2	Ring	6
117.2283333333333	0	n/a	70338	KeyDown	41324	4	Index	6
117.6033333333333	0	n/a	70563	KeyDown	41324	4	Index	6
117.9850000000000	0	n/a	70792	KeyDown	41324	1	Little	6
118.5783333333333	0	n/a	71148	KeyDown	41324	3	Middle	6
118.9133333333333	0	n/a	71349	KeyDown	41324	2	Ring	6
119.3150000000000	0	n/a	71590	KeyDown	41324	4	Index	6
119.6816666666667	0	n/a	71810	KeyDown	41324	4	Index	6
120.0666666666667	0	n/a	72041	KeyDown	41324	1	Little	6
120.4900000000000	0	n/a	72295	KeyDown	41324	3	Middle	6
120.8566666666667	0	n/a	72515	KeyDown	41324	2	Ring	6
121.2333333333333	0	n/a	72741	KeyDown	41324	4	Index	6
121.5983333333333	0	n/a	72960	KeyDown	41324	4	Index	6
121.9683333333333	0	n/a	73182	KeyDown	41324	1	Little	6
122.3633333333333	0	n/a	73419	KeyDown	41324	3	Middle	6
122.7450000000000	0	n/a	73648	KeyDown	41324	2	Ring	6
122.9900000000000	0	n/a	73795	StopPractice	41324	n/a	n/a	6
122.9916666666667	0	n/a	73796	StartRest	XXXXX	n/a	n/a	6
133.0250000000000	0	n/a	79816	StopRest	XXXXX	n/a	n/a	6
133.0266666666667	0	UPPT001	79817	StartPractice	41324	n/a	n/a	7
133.7133333333333	0	n/a	80229	KeyDown	41324	4	Index	7
134.0916666666667	0	n/a	80456	KeyDown	41324	1	Little	7
134.5300000000000	0	n/a	80719	KeyDown	41324	3	Middle	7
134.8650000000000	0	n/a	80920	KeyDown	41324	2	Ring	7
135.2100000000000	0	n/a	81127	KeyDown	41324	4	Index	7
135.5933333333333	0	n/a	81357	KeyDown	41324	4	Index	7
135.9550000000000	0	n/a	81574	KeyDown	41324	1	Little	7
136.3150000000000	0	n/a	81790	KeyDown	41324	3	Middle	7
136.6800000000000	0	n/a	82009	KeyDown	41324	2	Ring	7
137.0550000000000	0	n/a	82234	KeyDown	41324	4	Index	7
137.4383333333333	0	n/a	82464	KeyDown	41324	4	Index	7
137.7766666666667	0	n/a	82667	KeyDown	41324	1	Little	7
138.1683333333334	0	n/a	82902	KeyDown	41324	3	Middle	7
138.5283333333333	0	n/a	83118	KeyDown	41324	2	Ring	7
138.9050000000000	0	n/a	83344	KeyDown	41324	4	Index	7
139.2600000000000	0	n/a	83557	KeyDown	41324	4	Index	7
139.6083333333333	0	n/a	83766	KeyDown	41324	1	Little	7
139.9366666666667	0	n/a	83963	KeyDown	41324	3	Middle	7
140.3133333333333	0	n/a	84189	KeyDown	41324	2	Ring	7
140.6583333333333	0	n/a	84396	KeyDown	41324	4	Index	7
141.0383333333334	0	n/a	84624	KeyDown	41324	4	Index	7
141.3466666666667	0	n/a	84809	KeyDown	41324	1	Little	7
141.7433333333333	0	n/a	85047	KeyDown	41324	3	Middle	7
142.1150000000000	0	n/a	85270	KeyDown	41324	2	Ring	7
142.4566666666667	0	n/a	85475	KeyDown	41324	4	Index	7
143.0650000000000	0	n/a	85840	StopPractice	41324	n/a	n/a	7
143.0666666666667	0	n/a	85841	StartRest	XXXXX	n/a	n/a	7
153.1000000000000	0	n/a	91861	StopRest	XXXXX	n/a	n/a	7
153.1016666666667	0	UPPT001	91862	StartPractice	41324	n/a	n/a	8
153.8500000000000	0	n/a	92311	KeyDown	41324	4	Index	8
154.1683333333334	0	n/a	92502	KeyDown	41324	1	Little	8
154.6050000000000	0	n/a	92764	KeyDown	41324	3	Middle	8
155.0200000000000	0	n/a	93013	KeyDown	41324	2	Ring	8
155.4583333333333	0	n/a	93276	KeyDown	41324	4	Index	8
155.8050000000000	0	n/a	93484	KeyDown	41324	4	Index	8
156.1383333333333	0	n/a	93684	KeyDown	41324	1	Little	8
156.5283333333333	0	n/a	93918	KeyDown	41324	3	Middle	8
156.8333333333333	0	n/a	94101	KeyDown	41324	2	Ring	8
157.2016666666667	0	n/a	94322	KeyDown	41324	4	Index	8
157.5500000000000	0	n/a	94531	KeyDown	41324	4	Index	8
157.9233333333333	0	n/a	94755	KeyDown	41324	1	Little	8
158.2683333333333	0	n/a	94962	KeyDown	41324	3	Middle	8
158.5833333333333	0	n/a	95151	KeyDown	41324	2	Ring	8
158.9566666666667	0	n/a	95375	KeyDown	41324	4	Index	8
159.2883333333334	0	n/a	95574	KeyDown	41324	4	Index	8
159.6283333333333	0	n/a	95778	KeyDown	41324	1	Little	8
160.0433333333334	0	n/a	96027	KeyDown	41324	3	Middle	8
160.3900000000000	0	n/a	96235	KeyDown	41324	2	Ring	8
160.7133333333333	0	n/a	96429	KeyDown	41324	4	Index	8
161.0583333333333	0	n/a	96636	KeyDown	41324	4	Index	8
161.3783333333333	0	n/a	96828	KeyDown	41324	1	Little	8
161.7166666666667	0	n/a	97031	KeyDown	41324	3	Middle	8
162.0866666666667	0	n/a	97253	KeyDown	41324	2	Ring	8
162.4416666666667	0	n/a	97466	KeyDown	41324	4	Index	8
162.7650000000000	0	n/a	97660	KeyDown	41324	4	Index	8
163.1400000000000	0	n/a	97885	StopPractice	41324	n/a	n/a	8
163.1416666666667	0	n/a	97886	StartRest	XXXXX	n/a	n/a	8
173.1750000000000	0	n/a	103906	StopRest	XXXXX	n/a	n/a	8
173.1766666666667	0	UPPT001	103907	StartPractice	41324	n/a	n/a	9
174.2283333333334	0	n/a	104538	KeyDown	41324	4	Index	9
174.6150000000000	0	n/a	104770	KeyDown	41324	1	Little	9
175.0100000000000	0	n/a	105007	KeyDown	41324	3	Middle	9
175.3550000000000	0	n/a	105214	KeyDown	41324	2	Ring	9
175.7166666666667	0	n/a	105431	KeyDown	41324	4	Index	9
176.0933333333333	0	n/a	105657	KeyDown	41324	4	Index	9
176.4600000000000	0	n/a	105877	KeyDown	41324	1	Little	9
176.8566666666667	0	n/a	106115	KeyDown	41324	3	Middle	9
177.1800000000000	0	n/a	106309	KeyDown	41324	2	Ring	9
177.5683333333334	0	n/a	106542	KeyDown	41324	4	Index	9
177.9383333333333	0	n/a	106764	KeyDown	41324	4	Index	9
178.3383333333333	0	n/a	107004	KeyDown	41324	1	Little	9
178.7366666666667	0	n/a	107243	KeyDown	41324	3	Middle	9
179.0850000000000	0	n/a	107452	KeyDown	41324	2	Ring	9
179.4766666666667	0	n/a	107687	KeyDown	41324	4	Index	9
179.8383333333333	0	n/a	107904	KeyDown	41324	4	Index	9
180.1883333333333	0	n/a	108114	KeyDown	41324	1	Little	9
180.5133333333333	0	n/a	108309	KeyDown	41324	3	Middle	9
180.8750000000000	0	n/a	108526	KeyDown	41324	2	Ring	9
181.2300000000000	0	n/a	108739	KeyDown	41324	4	Index	9
181.6583333333333	0	n/a	108996	KeyDown	41324	4	Index	9
182.4033333333333	0	n/a	109443	KeyDown	41324	1	Little	9
182.9233333333333	0	n/a	109755	KeyDown	41324	3	Middle	9
183.2150000000000	0	n/a	109930	StopPractice	41324	n/a	n/a	9
183.2166666666667	0	n/a	109931	StartRest	XXXXX	n/a	n/a	9
193.2500000000000	0	n/a	115951	StopRest	XXXXX	n/a	n/a	9
193.2516666666667	0	UPPT001	115952	StartPractice	41324	n/a	n/a	10
194.2016666666667	0	n/a	116522	KeyDown	41324	4	Index	10
194.6650000000000	0	n/a	116800	KeyDown	41324	1	Little	10
195.0183333333333	0	n/a	117012	KeyDown	41324	3	Middle	10
195.3416666666667	0	n/a	117206	KeyDown	41324	2	Ring	10
195.6833333333333	0	n/a	117411	KeyDown	41324	4	Index	10
196.0666666666667	0	n/a	117641	KeyDown	41324	4	Index	10
196.3933333333333	0	n/a	117837	KeyDown	41324	1	Little	10
196.7800000000000	0	n/a	118069	KeyDown	41324	3	Middle	10
197.1100000000000	0	n/a	118267	KeyDown	41324	2	Ring	10
197.4766666666667	0	n/a	118487	KeyDown	41324	4	Index	10
197.8333333333333	0	n/a	118701	KeyDown	41324	4	Index	10
198.1800000000000	0	n/a	118909	KeyDown	41324	1	Little	10
198.5200000000000	0	n/a	119113	KeyDown	41324	3	Middle	10
198.8800000000000	0	n/a	119329	KeyDown	41324	2	Ring	10
199.2183333333333	0	n/a	119532	KeyDown	41324	4	Index	10
199.5683333333334	0	n/a	119742	KeyDown	41324	4	Index	10
199.9433333333334	0	n/a	119967	KeyDown	41324	1	Little	10
200.3016666666667	0	n/a	120182	KeyDown	41324	3	Middle	10
200.6683333333334	0	n/a	120402	KeyDown	41324	2	Ring	10
201.0266666666667	0	n/a	120617	KeyDown	41324	4	Index	10
201.3533333333334	0	n/a	120813	KeyDown	41324	4	Index	10
201.7083333333333	0	n/a	121026	KeyDown	41324	1	Little	10
202.0350000000000	0	n/a	121222	KeyDown	41324	3	Middle	10
202.3733333333333	0	n/a	121425	KeyDown	41324	2	Ring	10
202.7250000000000	0	n/a	121636	KeyDown	41324	4	Index	10
203.0700000000000	0	n/a	121843	KeyDown	41324	4	Index	10
203.2900000000000	0	n/a	121975	StopPractice	41324	n/a	n/a	10
203.2916666666667	0	n/a	121976	StartRest	XXXXX	n/a	n/a	10
213.3250000000000	0	n/a	127996	StopRest	XXXXX	n/a	n/a	10
213.3266666666667	0	UPPT001	127997	StartPractice	41324	n/a	n/a	11
214.1600000000000	0	n/a	128497	KeyDown	41324	4	Index	11
214.5550000000000	0	n/a	128734	KeyDown	41324	1	Little	11
214.9500000000000	0	n/a	128971	KeyDown	41324	3	Middle	11
215.2350000000000	0	n/a	129142	KeyDown	41324	2	Ring	11
215.6316666666667	0	n/a	129380	KeyDown	41324	4	Index	11
215.9933333333333	0	n/a	129597	KeyDown	41324	4	Index	11
216.3466666666667	0	n/a	129809	KeyDown	41324	1	Little	11
216.7133333333333	0	n/a	130029	KeyDown	41324	3	Middle	11
217.0000000000000	0	n/a	130201	KeyDown	41324	2	Ring	11
217.3483333333334	0	n/a	130410	KeyDown	41324	4	Index	11
217.6733333333333	0	n/a	130605	KeyDown	41324	4	Index	11
218.0416666666667	0	n/a	130826	KeyDown	41324	1	Little	11
218.4333333333333	0	n/a	131061	KeyDown	41324	3	Middle	11
218.7200000000000	0	n/a	131233	KeyDown	41324	2	Ring	11
219.0600000000000	0	n/a	131437	KeyDown	41324	4	Index	11
219.3883333333333	0	n/a	131634	KeyDown	41324	4	Index	11
219.7300000000000	0	n/a	131839	KeyDown	41324	1	Little	11
220.1283333333334	0	n/a	132078	KeyDown	41324	3	Middle	11
220.4016666666667	0	n/a	132242	KeyDown	41324	2	Ring	11
220.7433333333333	0	n/a	132447	KeyDown	41324	4	Index	11
221.0733333333334	0	n/a	132645	KeyDown	41324	4	Index	11
221.3833333333334	0	n/a	132831	KeyDown	41324	1	Little	11
221.7550000000000	0	n/a	133054	KeyDown	41324	3	Middle	11
222.0850000000000	0	n/a	133252	KeyDown	41324	2	Ring	11
222.3966666666667	0	n/a	133439	KeyDown	41324	4	Index	11
222.6883333333334	0	n/a	133614	KeyDown	41324	4	Index	11
222.9900000000000	0	n/a	133795	KeyDown	41324	1	Little	11
223.3350000000000	0	n/a	134002	KeyDown	41324	3	Middle	11
223.3650000000000	0	n/a	134020	StopPractice	41324	n/a	n/a	11
223.3666666666667	0	n/a	134021	StartRest	XXXXX	n/a	n/a	11
233.4000000000000	0	n/a	140041	StopRest	XXXXX	n/a	n/a	11
233.4016666666667	0	UPPT001	140042	StartPractice	41324	n/a	n/a	12
234.1116666666667	0	n/a	140468	KeyDown	41324	4	Index	12
234.8283333333333	0	n/a	140898	KeyDown	41324	1	Little	12
235.1933333333334	0	n/a	141117	KeyDown	41324	3	Middle	12
235.5050000000000	0	n/a	141304	KeyDown	41324	2	Ring	12
235.8816666666667	0	n/a	141530	KeyDown	41324	4	Index	12
236.1783333333333	0	n/a	141708	KeyDown	41324	4	Index	12
236.5283333333333	0	n/a	141918	KeyDown	41324	1	Little	12
236.8583333333333	0	n/a	142116	KeyDown	41324	3	Middle	12
237.1700000000000	0	n/a	142303	KeyDown	41324	2	Ring	12
237.4850000000000	0	n/a	142492	KeyDown	41324	4	Index	12
237.8083333333333	0	n/a	142686	KeyDown	41324	4	Index	12
238.1466666666667	0	n/a	142889	KeyDown	41324	1	Little	12
238.4916666666667	0	n/a	143096	KeyDown	41324	3	Middle	12
238.7916666666667	0	n/a	143276	KeyDown	41324	2	Ring	12
239.1150000000000	0	n/a	143470	KeyDown	41324	4	Index	12
239.4050000000000	0	n/a	143644	KeyDown	41324	4	Index	12
239.7133333333333	0	n/a	143829	KeyDown	41324	1	Little	12
240.0400000000000	0	n/a	144025	KeyDown	41324	3	Middle	12
240.3566666666667	0	n/a	144215	KeyDown	41324	2	Ring	12
240.6883333333334	0	n/a	144414	KeyDown	41324	4	Index	12
241.0000000000000	0	n/a	144601	KeyDown	41324	4	Index	12
241.2883333333334	0	n/a	144774	KeyDown	41324	1	Little	12
241.7050000000000	0	n/a	145024	KeyDown	41324	3	Middle	12
242.0166666666667	0	n/a	145211	KeyDown	41324	2	Ring	12
242.3816666666667	0	n/a	145430	KeyDown	41324	4	Index	12
242.6650000000000	0	n/a	145600	KeyDown	41324	4	Index	12
242.9416666666667	0	n/a	145766	KeyDown	41324	1	Little	12
243.2850000000000	0	n/a	145972	KeyDown	41324	3	Middle	12
243.4400000000000	0	n/a	146065	StopPractice	41324	n/a	n/a	12
243.4416666666667	0	n/a	146066	StartRest	XXXXX	n/a	n/a	12
253.4733333333334	0	n/a	152085	StopRest	XXXXX	n/a	n/a	12
253.4750000000000	0	UPPT001	152086	StartPractice	41324	n/a	n/a	13
254.4016666666667	0	n/a	152642	KeyDown	41324	4	Index	13
254.7666666666667	0	n/a	152861	KeyDown	41324	1	Little	13
255.0666666666667	0	n/a	153041	KeyDown	41324	3	Middle	13
255.3816666666667	0	n/a	153230	KeyDown	41324	2	Ring	13
255.7183333333334	0	n/a	153432	KeyDown	41324	4	Index	13
255.9766666666667	0	n/a	153587	KeyDown	41324	4	Index	13
256.2766666666667	0	n/a	153767	KeyDown	41324	1	Little	13
256.6000000000000	0	n/a	153961	KeyDown	41324	3	Middle	13
256.8866666666667	0	n/a	154133	KeyDown	41324	2	Ring	13
257.1966666666667	0	n/a	154319	KeyDown	41324	4	Index	13
257.4766666666667	0	n/a	154487	KeyDown	41324	4	Index	13
257.8033333333333	0	n/a	154683	KeyDown	41324	1	Little	13
258.1233333333333	0	n/a	154875	KeyDown	41324	3	Middle	13
258.4133333333334	0	n/a	155049	KeyDown	41324	2	Ring	13
258.6900000000000	0	n/a	155215	KeyDown	41324	4	Index	13
258.9816666666667	0	n/a	155390	KeyDown	41324	4	Index	13
259.2883333333334	0	n/a	155574	KeyDown	41324	1	Little	13
259.6016666666667	0	n/a	155762	KeyDown	41324	3	Middle	13
259.8783333333333	0	n/a	155928	KeyDown	41324	2	Ring	13
260.1683333333334	0	n/a	156102	KeyDown	41324	4	Index	13
260.4533333333334	0	n/a	156273	KeyDown	41324	4	Index	13
260.7266666666667	0	n/a	156437	KeyDown	41324	1	Little	13
261.1300000000000	0	n/a	156679	KeyDown	41324	3	Middle	13
261.4116666666667	0	n/a	156848	KeyDown	41324	2	Ring	13
261.7350000000000	0	n/a	157042	KeyDown	41324	4	Index	13
261.9983333333333	0	n/a	157200	KeyDown	41324	4	Index	13
262.5966666666667	0	n/a	157559	KeyDown	41324	1	Little	13
263.0883333333334	0	n/a	157854	KeyDown	41324	3	Middle	13
263.2983333333333	0	n/a	157980	KeyDown	41324	2	Ring	13
263.5133333333334	0	n/a	158109	StopPractice	41324	n/a	n/a	13
263.5150000000000	0	n/a	158110	StartRest	XXXXX	n/a	n/a	13
273.5483333333333	0	n/a	164130	StopRest	XXXXX	n/a	n/a	13
273.5500000000000	0	UPPT001	164131	StartPractice	41324	n/a	n/a	14
274.3500000000000	0	n/a	164611	KeyDown	41324	4	Index	14
274.6533333333334	0	n/a	164793	KeyDown	41324	1	Little	14
275.0533333333333	0	n/a	165033	KeyDown	41324	3	Middle	14
275.3283333333334	0	n/a	165198	KeyDown	41324	2	Ring	14
275.6316666666667	0	n/a	165380	KeyDown	41324	4	Index	14
275.9433333333333	0	n/a	165567	KeyDown	41324	4	Index	14
276.2283333333334	0	n/a	165738	KeyDown	41324	1	Little	14
276.6366666666667	0	n/a	165983	KeyDown	41324	3	Middle	14
276.9233333333333	0	n/a	166155	KeyDown	41324	2	Ring	14
277.2233333333334	0	n/a	166335	KeyDown	41324	4	Index	14
277.5166666666667	0	n/a	166511	KeyDown	41324	4	Index	14
277.8233333333333	0	n/a	166695	KeyDown	41324	1	Little	14
278.1733333333333	0	n/a	166905	KeyDown	41324	3	Middle	14
278.4566666666667	0	n/a	167075	KeyDown	41324	2	Ring	14
278.7583333333333	0	n/a	167256	KeyDown	41324	4	Index	14
279.0266666666667	0	n/a	167417	KeyDown	41324	4	Index	14
279.3466666666667	0	n/a	167609	KeyDown	41324	3	Middle	14
282.0533333333333	0	n/a	169233	KeyDown	41324	4	Index	14
282.3650000000000	0	n/a	169420	KeyDown	41324	1	Little	14
282.7016666666667	0	n/a	169622	KeyDown	41324	3	Middle	14
283.0166666666667	0	n/a	169811	KeyDown	41324	2	Ring	14
283.3366666666667	0	n/a	170003	KeyDown	41324	4	Index	14
283.5883333333334	0	n/a	170154	StopPractice	41324	n/a	n/a	14
283.5900000000000	0	n/a	170155	StartRest	XXXXX	n/a	n/a	14
293.6250000000000	0	n/a	176176	StopRest	XXXXX	n/a	n/a	14
293.6266666666667	0	UPPT001	176177	StartPractice	41324	n/a	n/a	15
294.6266666666667	0	n/a	176777	KeyDown	41324	4	Index	15
294.9450000000000	0	n/a	176968	KeyDown	41324	1	Little	15
295.2866666666667	0	n/a	177173	KeyDown	41324	3	Middle	15
295.5950000000000	0	n/a	177358	KeyDown	41324	2	Ring	15
295.9066666666667	0	n/a	177545	KeyDown	41324	4	Index	15
296.2083333333334	0	n/a	177726	KeyDown	41324	4	Index	15
296.5100000000000	0	n/a	177907	KeyDown	41324	1	Little	15
296.8316666666667	0	n/a	178100	KeyDown	41324	3	Middle	15
297.1250000000000	0	n/a	178276	KeyDown	41324	2	Ring	15
297.4450000000000	0	n/a	178468	KeyDown	41324	4	Index	15
297.7450000000000	0	n/a	178648	KeyDown	41324	4	Index	15
298.0650000000000	0	n/a	178840	KeyDown	41324	1	Little	15
298.3800000000000	0	n/a	179029	KeyDown	41324	3	Middle	15
298.6750000000000	0	n/a	179206	KeyDown	41324	2	Ring	15
299.0216666666667	0	n/a	179414	KeyDown	41324	4	Index	15
299.3416666666667	0	n/a	179606	KeyDown	41324	4	Index	15
299.6300000000000	0	n/a	179779	KeyDown	41324	1	Little	15
299.9783333333334	0	n/a	179988	KeyDown	41324	3	Middle	15
300.2550000000000	0	n/a	180154	KeyDown	41324	2	Ring	15
300.5933333333334	0	n/a	180357	KeyDown	41324	4	Index	15
300.8850000000000	0	n/a	180532	KeyDown	41324	4	Index	15
301.1916666666667	0	n/a	180716	KeyDown	41324	1	Little	15
301.5216666666667	0	n/a	180914	KeyDown	41324	3	Middle	15
301.8166666666667	0	n/a	181091	KeyDown	41324	2	Ring	15
302.1783333333333	0	n/a	181308	KeyDown	41324	4	Index	15
302.4783333333334	0	n/a	181488	KeyDown	41324	4	Index	15
302.7600000000000	0	n/a	181657	KeyDown	41324	1	Little	15
303.0950000000000	0	n/a	181858	KeyDown	41324	3	Middle	15
303.3833333333333	0	n/a	182031	KeyDown	41324	2	Ring	15
303.6650000000000	0	n/a	182200	StopPractice	41324	n/a	n/a	15
303.6666666666667	0	n/a	182201	StartRest	XXXXX	n/a	n/a	15
313.6983333333334	0	n/a	188220	StopRest	XXXXX	n/a	n/a	15
313.7000000000000	0	UPPT001	188221	StartPractice	41324	n/a	n/a	16
314.5433333333334	0	n/a	188727	KeyDown	41324	4	Index	16
314.8833333333333	0	n/a	188931	KeyDown	41324	1	Little	16
315.2266666666667	0	n/a	189137	KeyDown	41324	3	Middle	16
315.5416666666667	0	n/a	189326	KeyDown	41324	2	Ring	16
315.8483333333334	0	n/a	189510	KeyDown	41324	4	Index	16
316.1783333333333	0	n/a	189708	KeyDown	41324	4	Index	16
316.4966666666667	0	n/a	189899	KeyDown	41324	1	Little	16
316.8266666666667	0	n/a	190097	KeyDown	41324	3	Middle	16
317.1283333333333	0	n/a	190278	KeyDown	41324	2	Ring	16
317.4666666666667	0	n/a	190481	KeyDown	41324	4	Index	16
317.8166666666667	0	n/a	190691	KeyDown	41324	4	Index	16
318.1483333333334	0	n/a	190890	KeyDown	41324	1	Little	16
318.4566666666667	0	n/a	191075	KeyDown	41324	3	Middle	16
318.7433333333333	0	n/a	191247	KeyDown	41324	2	Ring	16
319.0766666666667	0	n/a	191447	KeyDown	41324	4	Index	16
319.4050000000000	0	n/a	191644	KeyDown	41324	4	Index	16
319.7433333333333	0	n/a	191847	KeyDown	41324	1	Little	16
320.1583333333334	0	n/a	192096	KeyDown	41324	3	Middle	16
320.4416666666667	0	n/a	192266	KeyDown	41324	2	Ring	16
320.7516666666667	0	n/a	192452	KeyDown	41324	4	Index	16
321.0333333333334	0	n/a	192621	KeyDown	41324	4	Index	16
321.3300000000000	0	n/a	192799	KeyDown	41324	1	Little	16
321.6633333333334	0	n/a	192999	KeyDown	41324	3	Middle	16
321.9716666666667	0	n/a	193184	KeyDown	41324	2	Ring	16
322.3183333333333	0	n/a	193392	KeyDown	41324	4	Index	16
322.6233333333333	0	n/a	193575	KeyDown	41324	4	Index	16
323.2633333333334	0	n/a	193959	KeyDown	41324	1	Little	16
323.6133333333333	0	n/a	194169	KeyDown	41324	3	Middle	16
323.7383333333333	0	n/a	194244	StopPractice	41324	n/a	n/a	16
323.7400000000000	0	n/a	194245	StartRest	XXXXX	n/a	n/a	16
333.7733333333334	0	n/a	200265	StopRest	XXXXX	n/a	n/a	16
333.7750000000000	0	UPPT001	200266	StartPractice	41324	n/a	n/a	17
334.8950000000000	0	n/a	200938	KeyDown	41324	4	Index	17
335.2116666666667	0	n/a	201128	KeyDown	41324	1	Little	17
335.6616666666667	0	n/a	201398	KeyDown	41324	3	Middle	17
335.9700000000000	0	n/a	201583	KeyDown	41324	2	Ring	17
336.2833333333334	0	n/a	201771	KeyDown	41324	4	Index	17
336.6200000000000	0	n/a	201973	KeyDown	41324	4	Index	17
336.9433333333333	0	n/a	202167	KeyDown	41324	1	Little	17
337.2533333333333	0	n/a	202353	KeyDown	41324	3	Middle	17
337.5466666666667	0	n/a	202529	KeyDown	41324	2	Ring	17
337.9116666666667	0	n/a	202748	KeyDown	41324	4	Index	17
338.2200000000000	0	n/a	202933	KeyDown	41324	4	Index	17
338.5200000000000	0	n/a	203113	KeyDown	41324	1	Little	17
338.8066666666667	0	n/a	203285	KeyDown	41324	3	Middle	17
339.1033333333334	0	n/a	203463	KeyDown	41324	2	Ring	17
339.4333333333333	0	n/a	203661	KeyDown	41324	4	Index	17
339.7516666666667	0	n/a	203852	KeyDown	41324	4	Index	17
340.0416666666667	0	n/a	204026	KeyDown	41324	1	Little	17
340.3333333333334	0	n/a	204201	KeyDown	41324	3	Middle	17
340.6683333333334	0	n/a	204402	KeyDown	41324	2	Ring	17
341.0100000000000	0	n/a	204607	KeyDown	41324	4	Index	17
341.3300000000000	0	n/a	204799	KeyDown	41324	4	Index	17
341.6400000000000	0	n/a	204985	KeyDown	41324	1	Little	17
341.9533333333334	0	n/a	205173	KeyDown	41324	3	Middle	17
342.2333333333333	0	n/a	205341	KeyDown	41324	2	Ring	17
342.5616666666667	0	n/a	205538	KeyDown	41324	4	Index	17
342.8716666666667	0	n/a	205724	KeyDown	41324	4	Index	17
343.1466666666667	0	n/a	205889	KeyDown	41324	1	Little	17
343.5266666666667	0	n/a	206117	KeyDown	41324	3	Middle	17
343.8133333333333	0	n/a	206289	StopPractice	41324	n/a	n/a	17
343.8150000000000	0	n/a	206290	StartRest	XXXXX	n/a	n/a	17
353.8483333333334	0	n/a	212310	StopRest	XXXXX	n/a	n/a	17
353.8500000000000	0	UPPT001	212311	StartPractice	41324	n/a	n/a	18
354.6183333333333	0	n/a	212772	KeyDown	41324	4	Index	18
354.9566666666667	0	n/a	212975	KeyDown	41324	1	Little	18
355.3050000000000	0	n/a	213184	KeyDown	41324	3	Middle	18
355.6266666666667	0	n/a	213377	KeyDown	41324	2	Ring	18
355.9300000000000	0	n/a	213559	KeyDown	41324	4	Index	18
356.2333333333333	0	n/a	213741	KeyDown	41324	4	Index	18
356.5666666666667	0	n/a	213941	KeyDown	41324	1	Little	18
356.9416666666667	0	n/a	214166	KeyDown	41324	3	Middle	18
357.2333333333333	0	n/a	214341	KeyDown	41324	2	Ring	18
357.5566666666667	0	n/a	214535	KeyDown	41324	4	Index	18
357.8816666666667	0	n/a	214730	KeyDown	41324	4	Index	18
358.1950000000001	0	n/a	214918	KeyDown	41324	1	Little	18
358.5433333333334	0	n/a	215127	KeyDown	41324	3	Middle	18
358.7966666666667	0	n/a	215279	KeyDown	41324	2	Ring	18
359.1116666666667	0	n/a	215468	KeyDown	41324	4	Index	18
359.4100000000000	0	n/a	215647	KeyDown	41324	4	Index	18
359.6916666666667	0	n/a	215816	KeyDown	41324	1	Little	18
359.9633333333334	0	n/a	215979	KeyDown	41324	3	Middle	18
360.2583333333334	0	n/a	216156	KeyDown	41324	2	Ring	18
360.5850000000000	0	n/a	216352	KeyDown	41324	4	Index	18
360.9100000000000	0	n/a	216547	KeyDown	41324	4	Index	18
361.2600000000000	0	n/a	216757	KeyDown	41324	1	Little	18
361.6250000000000	0	n/a	216976	KeyDown	41324	3	Middle	18
361.9300000000000	0	n/a	217159	KeyDown	41324	2	Ring	18
362.2183333333334	0	n/a	217332	KeyDown	41324	4	Index	18
362.5200000000000	0	n/a	217513	KeyDown	41324	4	Index	18
362.8066666666667	0	n/a	217685	KeyDown	41324	1	Little	18
363.1833333333333	0	n/a	217911	KeyDown	41324	3	Middle	18
363.4750000000000	0	n/a	218086	KeyDown	41324	2	Ring	18
363.8466666666667	0	n/a	218309	KeyDown	41324	4	Index	18
363.8883333333334	0	n/a	218334	StopPractice	41324	n/a	n/a	18
363.8900000000000	0	n/a	218335	StartRest	XXXXX	n/a	n/a	18
373.9233333333333	0	n/a	224355	StopRest	XXXXX	n/a	n/a	18
373.9250000000000	0	UPPT001	224356	StartPractice	41324	n/a	n/a	19
374.7300000000000	0	n/a	224839	KeyDown	41324	4	Index	19
375.0316666666667	0	n/a	225020	KeyDown	41324	1	Little	19
375.3366666666667	0	n/a	225203	KeyDown	41324	3	Middle	19
375.6150000000000	0	n/a	225370	KeyDown	41324	2	Ring	19
375.9133333333334	0	n/a	225549	KeyDown	41324	4	Index	19
376.2083333333334	0	n/a	225726	KeyDown	41324	4	Index	19
376.5050000000001	0	n/a	225904	KeyDown	41324	1	Little	19
376.8000000000000	0	n/a	226081	KeyDown	41324	3	Middle	19
377.0683333333334	0	n/a	226242	KeyDown	41324	2	Ring	19
377.4066666666667	0	n/a	226445	KeyDown	41324	4	Index	19
377.7083333333334	0	n/a	226626	KeyDown	41324	4	Index	19
378.0366666666667	0	n/a	226823	KeyDown	41324	1	Little	19
378.3816666666667	0	n/a	227030	KeyDown	41324	3	Middle	19
378.6366666666667	0	n/a	227183	KeyDown	41324	2	Ring	19
378.9716666666667	0	n/a	227384	KeyDown	41324	4	Index	19
379.2816666666667	0	n/a	227570	KeyDown	41324	4	Index	19
379.5566666666667	0	n/a	227735	KeyDown	41324	1	Little	19
379.8516666666667	0	n/a	227912	KeyDown	41324	3	Middle	19
380.1433333333334	0	n/a	228087	KeyDown	41324	2	Ring	19
380.5000000000000	0	n/a	228301	KeyDown	41324	4	Index	19
380.7633333333334	0	n/a	228459	KeyDown	41324	4	Index	19
381.0316666666667	0	n/a	228620	KeyDown	41324	1	Little	19
381.3133333333333	0	n/a	228789	KeyDown	41324	3	Middle	19
381.6016666666667	0	n/a	228962	KeyDown	41324	2	Ring	19
381.9083333333334	0	n/a	229146	KeyDown	41324	4	Index	19
382.1983333333334	0	n/a	229320	KeyDown	41324	4	Index	19
382.4466666666667	0	n/a	229469	KeyDown	41324	1	Little	19
382.7766666666667	0	n/a	229667	KeyDown	41324	3	Middle	19
383.0733333333334	0	n/a	229845	KeyDown	41324	2	Ring	19
383.3150000000000	0	n/a	229990	KeyDown	41324	2	Ring	19
383.6316666666667	0	n/a	230180	KeyDown	41324	4	Index	19
383.9633333333334	0	n/a	230379	StopPractice	41324	n/a	n/a	19
383.9650000000000	0	n/a	230380	StartRest	XXXXX	n/a	n/a	19
393.9983333333333	0	n/a	236400	StopRest	XXXXX	n/a	n/a	19
394.0000000000000	0	UPPT001	236401	StartPractice	41324	n/a	n/a	20
394.9783333333334	0	n/a	236988	KeyDown	41324	4	Index	20
395.2650000000000	0	n/a	237160	KeyDown	41324	1	Little	20
395.6383333333334	0	n/a	237384	KeyDown	41324	3	Middle	20
395.9266666666667	0	n/a	237557	KeyDown	41324	2	Ring	20
396.2216666666667	0	n/a	237734	KeyDown	41324	4	Index	20
396.5133333333334	0	n/a	237909	KeyDown	41324	4	Index	20
396.7966666666667	0	n/a	238079	KeyDown	41324	1	Little	20
397.1016666666667	0	n/a	238262	KeyDown	41324	3	Middle	20
397.3783333333334	0	n/a	238428	KeyDown	41324	2	Ring	20
397.7033333333334	0	n/a	238623	KeyDown	41324	4	Index	20
398.0016666666667	0	n/a	238802	KeyDown	41324	4	Index	20
398.2833333333334	0	n/a	238971	KeyDown	41324	1	Little	20
398.5800000000000	0	n/a	239149	KeyDown	41324	3	Middle	20
398.8650000000000	0	n/a	239320	KeyDown	41324	2	Ring	20
399.1900000000000	0	n/a	239515	KeyDown	41324	4	Index	20
399.4766666666667	0	n/a	239687	KeyDown	41324	4	Index	20
399.7416666666667	0	n/a	239846	KeyDown	41324	1	Little	20
400.0416666666667	0	n/a	240026	KeyDown	41324	3	Middle	20
400.3366666666667	0	n/a	240203	KeyDown	41324	2	Ring	20
400.6983333333334	0	n/a	240420	KeyDown	41324	4	Index	20
400.9616666666667	0	n/a	240578	KeyDown	41324	4	Index	20
401.2833333333334	0	n/a	240771	KeyDown	41324	1	Little	20
401.5800000000000	0	n/a	240949	KeyDown	41324	3	Middle	20
401.8933333333334	0	n/a	241137	KeyDown	41324	2	Ring	20
402.1983333333334	0	n/a	241320	KeyDown	41324	4	Index	20
402.5116666666667	0	n/a	241508	KeyDown	41324	4	Index	20
402.7883333333334	0	n/a	241674	KeyDown	41324	1	Little	20
403.0950000000000	0	n/a	241858	KeyDown	41324	3	Middle	20
403.3766666666667	0	n/a	242027	KeyDown	41324	2	Ring	20
403.7116666666667	0	n/a	242228	KeyDown	41324	4	Index	20
403.9983333333333	0	n/a	242400	KeyDown	41324	4	Index	20
404.0383333333334	0	n/a	242424	StopPractice	41324	n/a	n/a	20
404.0400000000000	0	n/a	242425	StartRest	XXXXX	n/a	n/a	20
414.0716666666667	0	n/a	248444	StopRest	XXXXX	n/a	n/a	20
414.0733333333334	0	UPPT001	248445	StartPractice	41324	n/a	n/a	21
414.6966666666667	0	n/a	248819	KeyDown	41324	4	Index	21
415.0016666666667	0	n/a	249002	KeyDown	41324	1	Little	21
415.3216666666667	0	n/a	249194	KeyDown	41324	3	Middle	21
415.5950000000000	0	n/a	249358	KeyDown	41324	2	Ring	21
415.9166666666667	0	n/a	249551	KeyDown	41324	4	Index	21
416.2016666666667	0	n/a	249722	KeyDown	41324	4	Index	21
416.4933333333333	0	n/a	249897	KeyDown	41324	1	Little	21
416.8516666666667	0	n/a	250112	KeyDown	41324	3	Middle	21
417.1150000000000	0	n/a	250270	KeyDown	41324	2	Ring	21
417.4016666666667	0	n/a	250442	KeyDown	41324	4	Index	21
417.7083333333334	0	n/a	250626	KeyDown	41324	4	Index	21
417.9933333333333	0	n/a	250797	KeyDown	41324	1	Little	21
418.2600000000000	0	n/a	250957	KeyDown	41324	3	Middle	21
418.6600000000000	0	n/a	251197	KeyDown	41324	2	Ring	21
418.9566666666667	0	n/a	251375	KeyDown	41324	4	Index	21
419.2350000000000	0	n/a	251542	KeyDown	41324	4	Index	21
419.5266666666667	0	n/a	251717	KeyDown	41324	1	Little	21
419.8950000000000	0	n/a	251938	KeyDown	41324	3	Middle	21
420.1833333333333	0	n/a	252111	KeyDown	41324	2	Ring	21
420.5483333333333	0	n/a	252330	KeyDown	41324	4	Index	21
420.8450000000000	0	n/a	252508	KeyDown	41324	4	Index	21
421.1133333333333	0	n/a	252669	KeyDown	41324	1	Little	21
421.4300000000000	0	n/a	252859	KeyDown	41324	3	Middle	21
421.7333333333333	0	n/a	253041	KeyDown	41324	2	Ring	21
422.0750000000000	0	n/a	253246	KeyDown	41324	4	Index	21
422.3533333333334	0	n/a	253413	KeyDown	41324	4	Index	21
422.6050000000000	0	n/a	253564	KeyDown	41324	1	Little	21
423.1000000000000	0	n/a	253861	KeyDown	41324	3	Middle	21
423.2933333333334	0	n/a	253977	KeyDown	41324	2	Ring	21
423.7583333333334	0	n/a	254256	KeyDown	41324	4	Index	21
424.0100000000000	0	n/a	254407	KeyDown	41324	4	Index	21
424.1116666666667	0	n/a	254468	StopPractice	41324	n/a	n/a	21
424.1133333333333	0	n/a	254469	StartRest	XXXXX	n/a	n/a	21
434.1483333333334	0	n/a	260490	StopRest	XXXXX	n/a	n/a	21
434.1500000000000	0	UPPT001	260491	StartPractice	41324	n/a	n/a	22
434.9766666666667	0	n/a	260987	KeyDown	41324	4	Index	22
435.2283333333334	0	n/a	261138	KeyDown	41324	1	Little	22
435.5716666666667	0	n/a	261344	KeyDown	41324	3	Middle	22
435.8650000000000	0	n/a	261520	KeyDown	41324	2	Ring	22
436.1666666666667	0	n/a	261701	KeyDown	41324	4	Index	22
436.4383333333334	0	n/a	261864	KeyDown	41324	4	Index	22
436.9216666666667	0	n/a	262154	KeyDown	41324	1	Little	22
437.2083333333334	0	n/a	262326	KeyDown	41324	3	Middle	22
437.5216666666667	0	n/a	262514	KeyDown	41324	2	Ring	22
437.8783333333334	0	n/a	262728	KeyDown	41324	4	Index	22
438.1583333333334	0	n/a	262896	KeyDown	41324	4	Index	22
438.4450000000001	0	n/a	263068	KeyDown	41324	1	Little	22
438.6516666666667	0	n/a	263192	KeyDown	41324	3	Middle	22
439.0233333333334	0	n/a	263415	KeyDown	41324	2	Ring	22
439.3633333333333	0	n/a	263619	KeyDown	41324	4	Index	22
439.6483333333334	0	n/a	263790	KeyDown	41324	4	Index	22
439.9183333333334	0	n/a	263952	KeyDown	41324	1	Little	22
440.1866666666667	0	n/a	264113	KeyDown	41324	3	Middle	22
440.5483333333333	0	n/a	264330	KeyDown	41324	2	Ring	22
440.8933333333334	0	n/a	264537	KeyDown	41324	4	Index	22
441.1816666666667	0	n/a	264710	KeyDown	41324	4	Index	22
441.4616666666667	0	n/a	264878	KeyDown	41324	1	Little	22
441.7583333333334	0	n/a	265056	KeyDown	41324	3	Middle	22
442.0783333333334	0	n/a	265248	KeyDown	41324	2	Ring	22
442.4216666666667	0	n/a	265454	KeyDown	41324	4	Index	22
442.7016666666667	0	n/a	265622	KeyDown	41324	4	Index	22
442.9766666666667	0	n/a	265787	KeyDown	41324	1	Little	22
443.4233333333333	0	n/a	266055	KeyDown	41324	3	Middle	22
443.4883333333333	0	n/a	266094	KeyDown	41324	4	Index	22
443.5266666666667	0	n/a	266117	KeyDown	41324	3	Middle	22
444.1883333333334	0	n/a	266514	StopPractice	41324	n/a	n/a	22
444.1900000000001	0	n/a	266515	StartRest	XXXXX	n/a	n/a	22
454.2233333333334	0	n/a	272535	StopRest	XXXXX	n/a	n/a	22
454.2250000000000	0	UPPT001	272536	StartPractice	41324	n/a	n/a	23
454.9750000000000	0	n/a	272986	KeyDown	41324	4	Index	23
455.2983333333333	0	n/a	273180	KeyDown	41324	1	Little	23
455.5800000000000	0	n/a	273349	KeyDown	41324	3	Middle	23
455.8866666666667	0	n/a	273533	KeyDown	41324	2	Ring	23
456.2116666666667	0	n/a	273728	KeyDown	41324	4	Index	23
456.4866666666667	0	n/a	273893	KeyDown	41324	4	Index	23
456.7850000000000	0	n/a	274072	KeyDown	41324	1	Little	23
457.0516666666667	0	n/a	274232	KeyDown	41324	3	Middle	23
457.3566666666667	0	n/a	274415	KeyDown	41324	2	Ring	23
457.6966666666667	0	n/a	274619	KeyDown	41324	4	Index	23
457.9916666666667	0	n/a	274796	KeyDown	41324	4	Index	23
458.2900000000000	0	n/a	274975	KeyDown	41324	1	Little	23
458.5800000000000	0	n/a	275149	KeyDown	41324	3	Middle	23
458.8633333333333	0	n/a	275319	KeyDown	41324	2	Ring	23
459.2233333333334	0	n/a	275535	KeyDown	41324	4	Index	23
459.5150000000000	0	n/a	275710	KeyDown	41324	4	Index	23
459.7683333333334	0	n/a	275862	KeyDown	41324	1	Little	23
460.4416666666667	0	n/a	276266	KeyDown	41324	2	Ring	23
460.7733333333334	0	n/a	276465	KeyDown	41324	4	Index	23
461.0550000000000	0	n/a	276634	KeyDown	41324	4	Index	23
461.3116666666667	0	n/a	276788	KeyDown	41324	1	Little	23
461.6366666666667	0	n/a	276983	KeyDown	41324	3	Middle	23
461.9483333333334	0	n/a	277170	KeyDown	41324	2	Ring	23
462.2950000000000	0	n/a	277378	KeyDown	41324	4	Index	23
462.5733333333334	0	n/a	277545	KeyDown	41324	4	Index	23
462.8466666666667	0	n/a	277709	KeyDown	41324	1	Little	23
463.1350000000000	0	n/a	277882	KeyDown	41324	3	Middle	23
463.5433333333334	0	n/a	278127	KeyDown	41324	2	Ring	23
463.8916666666667	0	n/a	278336	KeyDown	41324	4	Index	23
464.1733333333333	0	n/a	278505	KeyDown	41324	4	Index	23
464.2633333333334	0	n/a	278559	StopPractice	41324	n/a	n/a	23
464.2650000000000	0	n/a	278560	StartRest	XXXXX	n/a	n/a	23
474.2966666666667	0	n/a	284579	StopRest	XXXXX	n/a	n/a	23
474.2983333333333	0	UPPT001	284580	StartPractice	41324	n/a	n/a	24
475.4350000000000	0	n/a	285262	KeyDown	41324	4	Index	24
475.7600000000000	0	n/a	285457	KeyDown	41324	1	Little	24
476.0566666666667	0	n/a	285635	KeyDown	41324	3	Middle	24
476.3566666666667	0	n/a	285815	KeyDown	41324	2	Ring	24
476.6716666666667	0	n/a	286004	KeyDown	41324	4	Index	24
476.9616666666667	0	n/a	286178	KeyDown	41324	4	Index	24
477.2850000000000	0	n/a	286372	KeyDown	41324	1	Little	24
477.5850000000000	0	n/a	286552	KeyDown	41324	3	Middle	24
477.8816666666667	0	n/a	286730	KeyDown	41324	2	Ring	24
478.1783333333333	0	n/a	286908	KeyDown	41324	4	Index	24
478.4750000000000	0	n/a	287086	KeyDown	41324	4	Index	24
478.7350000000000	0	n/a	287242	KeyDown	41324	1	Little	24
479.0200000000000	0	n/a	287413	KeyDown	41324	3	Middle	24
479.3166666666667	0	n/a	287591	KeyDown	41324	2	Ring	24
479.6333333333334	0	n/a	287781	KeyDown	41324	4	Index	24
479.9350000000001	0	n/a	287962	KeyDown	41324	4	Index	24
480.2300000000000	0	n/a	288139	KeyDown	41324	1	Little	24
480.5150000000000	0	n/a	288310	KeyDown	41324	3	Middle	24
480.8150000000001	0	n/a	288490	KeyDown	41324	2	Ring	24
481.1450000000000	0	n/a	288688	KeyDown	41324	4	Index	24
481.4166666666667	0	n/a	288851	KeyDown	41324	4	Index	24
481.6933333333334	0	n/a	289017	KeyDown	41324	1	Little	24
482.0200000000000	0	n/a	289213	KeyDown	41324	3	Middle	24
482.2950000000000	0	n/a	289378	KeyDown	41324	2	Ring	24
482.5866666666667	0	n/a	289553	KeyDown	41324	4	Index	24
482.8716666666667	0	n/a	289724	KeyDown	41324	4	Index	24
483.1250000000001	0	n/a	289876	KeyDown	41324	1	Little	24
483.4850000000000	0	n/a	290092	KeyDown	41324	3	Middle	24
483.7866666666667	0	n/a	290273	KeyDown	41324	2	Ring	24
484.1350000000000	0	n/a	290482	KeyDown	41324	4	Index	24
484.3366666666667	0	n/a	290603	StopPractice	41324	n/a	n/a	24
484.3383333333334	0	n/a	290604	StartRest	XXXXX	n/a	n/a	24
494.3733333333334	0	n/a	296625	StopRest	XXXXX	n/a	n/a	24
494.3750000000001	0	UPPT001	296626	StartPractice	41324	n/a	n/a	25
495.4750000000000	0	n/a	297286	KeyDown	41324	4	Index	25
495.7783333333334	0	n/a	297468	KeyDown	41324	1	Little	25
496.0933333333334	0	n/a	297657	KeyDown	41324	3	Middle	25
496.3816666666667	0	n/a	297830	KeyDown	41324	2	Ring	25
496.7100000000000	0	n/a	298027	KeyDown	41324	4	Index	25
496.9866666666667	0	n/a	298193	KeyDown	41324	4	Index	25
497.2750000000000	0	n/a	298366	KeyDown	41324	1	Little	25
497.5583333333333	0	n/a	298536	KeyDown	41324	3	Middle	25
497.8266666666667	0	n/a	298697	KeyDown	41324	2	Ring	25
498.1566666666667	0	n/a	298895	KeyDown	41324	4	Index	25
498.4466666666667	0	n/a	299069	KeyDown	41324	4	Index	25
498.7316666666667	0	n/a	299240	KeyDown	41324	1	Little	25
499.0066666666667	0	n/a	299405	KeyDown	41324	3	Middle	25
499.2983333333333	0	n/a	299580	KeyDown	41324	2	Ring	25
499.5816666666667	0	n/a	299750	KeyDown	41324	4	Index	25
499.8666666666667	0	n/a	299921	KeyDown	41324	4	Index	25
500.1416666666667	0	n/a	300086	KeyDown	41324	1	Little	25
500.4266666666667	0	n/a	300257	KeyDown	41324	3	Middle	25
500.7700000000000	0	n/a	300463	KeyDown	41324	2	Ring	25
501.1550000000000	0	n/a	300694	KeyDown	41324	4	Index	25
501.4500000000000	0	n/a	300871	KeyDown	41324	4	Index	25
501.7266666666667	0	n/a	301037	KeyDown	41324	1	Little	25
502.0216666666667	0	n/a	301214	KeyDown	41324	3	Middle	25
502.3316666666667	0	n/a	301400	KeyDown	41324	2	Ring	25
502.6566666666667	0	n/a	301595	KeyDown	41324	4	Index	25
502.9666666666667	0	n/a	301781	KeyDown	41324	4	Index	25
503.2400000000000	0	n/a	301945	KeyDown	41324	1	Little	25
503.5333333333334	0	n/a	302121	KeyDown	41324	3	Middle	25
503.8533333333334	0	n/a	302313	KeyDown	41324	2	Ring	25
504.1800000000000	0	n/a	302509	KeyDown	41324	4	Index	25
504.4133333333334	0	n/a	302649	StopPractice	41324	n/a	n/a	25
504.4150000000000	0	n/a	302650	StartRest	XXXXX	n/a	n/a	25
514.4466666666667	0	n/a	308669	StopRest	XXXXX	n/a	n/a	25
514.4483333333334	0	UPPT001	308670	StartPractice	41324	n/a	n/a	26
515.2200000000000	0	n/a	309133	KeyDown	41324	4	Index	26
515.5316666666668	0	n/a	309320	KeyDown	41324	1	Little	26
515.8416666666667	0	n/a	309506	KeyDown	41324	3	Middle	26
516.1283333333333	0	n/a	309678	KeyDown	41324	2	Ring	26
516.4400000000001	0	n/a	309865	KeyDown	41324	4	Index	26
516.7550000000000	0	n/a	310054	KeyDown	41324	1	Little	26
517.1016666666667	0	n/a	310262	KeyDown	41324	3	Middle	26
517.3916666666667	0	n/a	310436	KeyDown	41324	2	Ring	26
517.7150000000000	0	n/a	310630	KeyDown	41324	4	Index	26
517.9916666666667	0	n/a	310796	KeyDown	41324	4	Index	26
518.2750000000000	0	n/a	310966	KeyDown	41324	1	Little	26
519.0900000000000	0	n/a	311455	KeyDown	41324	3	Middle	26
519.3516666666667	0	n/a	311612	KeyDown	41324	2	Ring	26
519.6566666666668	0	n/a	311795	KeyDown	41324	4	Index	26
519.9150000000001	0	n/a	311950	KeyDown	41324	4	Index	26
520.2250000000000	0	n/a	312136	KeyDown	41324	1	Little	26
520.5383333333334	0	n/a	312324	KeyDown	41324	3	Middle	26
520.8116666666667	0	n/a	312488	KeyDown	41324	2	Ring	26
521.1600000000001	0	n/a	312697	KeyDown	41324	4	Index	26
521.4033333333334	0	n/a	312843	KeyDown	41324	4	Index	26
521.8400000000000	0	n/a	313105	KeyDown	41324	1	Little	26
522.1483333333333	0	n/a	313290	KeyDown	41324	4	Index	26
522.2000000000000	0	n/a	313321	KeyDown	41324	4	Index	26
523.7950000000001	0	n/a	314278	KeyDown	41324	3	Middle	26
524.1333333333333	0	n/a	314481	KeyDown	41324	2	Ring	26
524.4866666666667	0	n/a	314693	StopPractice	41324	n/a	n/a	26
524.4883333333333	0	n/a	314694	StartRest	XXXXX	n/a	n/a	26
534.5233333333333	0	n/a	320715	StopRest	XXXXX	n/a	n/a	26
534.5250000000001	0	UPPT001	320716	StartPractice	41324	n/a	n/a	27
535.7783333333334	0	n/a	321468	KeyDown	41324	4	Index	27
536.0816666666667	0	n/a	321650	KeyDown	41324	1	Little	27
536.4066666666668	0	n/a	321845	KeyDown	41324	3	Middle	27
536.7066666666667	0	n/a	322025	KeyDown	41324	2	Ring	27
537.7550000000000	0	n/a	322654	KeyDown	41324	4	Index	27
538.0250000000001	0	n/a	322816	KeyDown	41324	4	Index	27
538.4050000000001	0	n/a	323044	KeyDown	41324	1	Little	27
538.7200000000000	0	n/a	323233	KeyDown	41324	3	Middle	27
538.9916666666667	0	n/a	323396	KeyDown	41324	2	Ring	27
539.3266666666667	0	n/a	323597	KeyDown	41324	4	Index	27
539.6116666666667	0	n/a	323768	KeyDown	41324	4	Index	27
539.8983333333333	0	n/a	323940	KeyDown	41324	1	Little	27
540.1766666666667	0	n/a	324107	KeyDown	41324	3	Middle	27
540.4616666666667	0	n/a	324278	KeyDown	41324	2	Ring	27
540.7883333333334	0	n/a	324474	KeyDown	41324	4	Index	27
541.0900000000000	0	n/a	324655	KeyDown	41324	4	Index	27
541.3866666666667	0	n/a	324833	KeyDown	41324	1	Little	27
541.6800000000001	0	n/a	325009	KeyDown	41324	3	Middle	27
541.9716666666667	0	n/a	325184	KeyDown	41324	2	Ring	27
542.3683333333333	0	n/a	325422	KeyDown	41324	4	Index	27
542.6466666666666	0	n/a	325589	KeyDown	41324	4	Index	27
542.9333333333334	0	n/a	325761	KeyDown	41324	1	Little	27
543.2200000000000	0	n/a	325933	KeyDown	41324	3	Middle	27
543.5983333333334	0	n/a	326160	KeyDown	41324	2	Ring	27
543.7183333333334	0	n/a	326232	KeyDown	41324	2	Ring	27
544.1816666666667	0	n/a	326510	KeyDown	41324	4	Index	27
544.4550000000000	0	n/a	326674	KeyDown	41324	4	Index	27
544.5633333333334	0	n/a	326739	StopPractice	41324	n/a	n/a	27
544.5650000000001	0	n/a	326740	StartRest	XXXXX	n/a	n/a	27
554.5966666666667	0	n/a	332759	StopRest	XXXXX	n/a	n/a	27
554.5983333333334	0	UPPT001	332760	StartPractice	41324	n/a	n/a	28
555.4466666666667	0	n/a	333269	KeyDown	41324	4	Index	28
555.7316666666667	0	n/a	333440	KeyDown	41324	1	Little	28
556.0416666666667	0	n/a	333626	KeyDown	41324	3	Middle	28
556.3116666666667	0	n/a	333788	KeyDown	41324	2	Ring	28
556.6200000000000	0	n/a	333973	KeyDown	41324	4	Index	28
556.9000000000001	0	n/a	334141	KeyDown	41324	4	Index	28
557.1916666666667	0	n/a	334316	KeyDown	41324	1	Little	28
557.4816666666667	0	n/a	334490	KeyDown	41324	3	Middle	28
557.7683333333333	0	n/a	334662	KeyDown	41324	2	Ring	28
558.0950000000000	0	n/a	334858	KeyDown	41324	4	Index	28
558.3816666666667	0	n/a	335030	KeyDown	41324	4	Index	28
558.6616666666667	0	n/a	335198	KeyDown	41324	1	Little	28
559.1216666666667	0	n/a	335474	KeyDown	41324	3	Middle	28
559.3233333333334	0	n/a	335595	KeyDown	41324	2	Ring	28
559.7516666666667	0	n/a	335852	KeyDown	41324	4	Index	28
560.0233333333334	0	n/a	336015	KeyDown	41324	4	Index	28
560.2716666666666	0	n/a	336164	KeyDown	41324	1	Little	28
560.5400000000001	0	n/a	336325	KeyDown	41324	3	Middle	28
560.8833333333333	0	n/a	336531	KeyDown	41324	2	Ring	28
561.1916666666667	0	n/a	336716	KeyDown	41324	4	Index	28
561.4866666666667	0	n/a	336893	KeyDown	41324	4	Index	28
561.7466666666667	0	n/a	337049	KeyDown	41324	1	Little	28
562.2266666666667	0	n/a	337337	KeyDown	41324	3	Middle	28
562.6116666666667	0	n/a	337568	KeyDown	41324	2	Ring	28
562.9933333333333	0	n/a	337797	KeyDown	41324	4	Index	28
563.2400000000000	0	n/a	337945	KeyDown	41324	4	Index	28
563.5450000000001	0	n/a	338128	KeyDown	41324	1	Little	28
563.8400000000000	0	n/a	338305	KeyDown	41324	3	Middle	28
564.1416666666667	0	n/a	338486	KeyDown	41324	2	Ring	28
564.5300000000001	0	n/a	338719	KeyDown	41324	4	Index	28
564.6366666666667	0	n/a	338783	StopPractice	41324	n/a	n/a	28
564.6383333333333	0	n/a	338784	StartRest	XXXXX	n/a	n/a	28
574.6716666666667	0	n/a	344804	StopRest	XXXXX	n/a	n/a	28
574.6733333333334	0	UPPT001	344805	StartPractice	41324	n/a	n/a	29
575.6000000000000	0	n/a	345361	KeyDown	41324	4	Index	29
575.8966666666666	0	n/a	345539	KeyDown	41324	1	Little	29
576.2216666666667	0	n/a	345734	KeyDown	41324	3	Middle	29
576.4766666666667	0	n/a	345887	KeyDown	41324	2	Ring	29
576.8000000000001	0	n/a	346081	KeyDown	41324	4	Index	29
577.0900000000000	0	n/a	346255	KeyDown	41324	4	Index	29
577.3983333333334	0	n/a	346440	KeyDown	41324	1	Little	29
577.7266666666667	0	n/a	346637	KeyDown	41324	3	Middle	29
578.0033333333333	0	n/a	346803	KeyDown	41324	2	Ring	29
578.3016666666667	0	n/a	346982	KeyDown	41324	4	Index	29
578.5916666666667	0	n/a	347156	KeyDown	41324	4	Index	29
578.8950000000000	0	n/a	347338	KeyDown	41324	1	Little	29
579.1950000000001	0	n/a	347518	KeyDown	41324	3	Middle	29
579.4783333333334	0	n/a	347688	KeyDown	41324	2	Ring	29
579.7866666666667	0	n/a	347873	KeyDown	41324	4	Index	29
580.1150000000000	0	n/a	348070	KeyDown	41324	4	Index	29
580.4350000000001	0	n/a	348262	KeyDown	41324	1	Little	29
580.7633333333333	0	n/a	348459	KeyDown	41324	3	Middle	29
581.0316666666668	0	n/a	348620	KeyDown	41324	2	Ring	29
581.3566666666667	0	n/a	348815	KeyDown	41324	4	Index	29
581.6466666666668	0	n/a	348989	KeyDown	41324	4	Index	29
581.9916666666667	0	n/a	349196	KeyDown	41324	1	Little	29
582.3016666666667	0	n/a	349382	KeyDown	41324	3	Middle	29
582.5783333333334	0	n/a	349548	KeyDown	41324	2	Ring	29
582.9200000000001	0	n/a	349753	KeyDown	41324	4	Index	29
583.1916666666667	0	n/a	349916	KeyDown	41324	4	Index	29
583.4683333333334	0	n/a	350082	KeyDown	41324	1	Little	29
583.7650000000000	0	n/a	350260	KeyDown	41324	2	Ring	29
584.7116666666667	0	n/a	350828	StopPractice	41324	n/a	n/a	29
584.7133333333334	0	n/a	350829	StartRest	XXXXX	n/a	n/a	29
594.7466666666667	0	n/a	356849	StopRest	XXXXX	n/a	n/a	29
594.7483333333333	0	UPPT001	356850	StartPractice	41324	n/a	n/a	30
596.4700000000000	0	n/a	357883	KeyDown	41324	4	Index	30
596.7316666666667	0	n/a	358040	KeyDown	41324	1	Little	30
597.0150000000000	0	n/a	358210	KeyDown	41324	3	Middle	30
597.3150000000001	0	n/a	358390	KeyDown	41324	2	Ring	30
597.6916666666667	0	n/a	358616	KeyDown	41324	4	Index	30
598.0950000000000	0	n/a	358858	KeyDown	41324	4	Index	30
598.3866666666667	0	n/a	359033	KeyDown	41324	1	Little	30
598.6983333333334	0	n/a	359220	KeyDown	41324	3	Middle	30
598.9750000000000	0	n/a	359386	KeyDown	41324	2	Ring	30
599.2766666666668	0	n/a	359567	KeyDown	41324	4	Index	30
599.5600000000001	0	n/a	359737	KeyDown	41324	4	Index	30
599.9016666666668	0	n/a	359942	KeyDown	41324	1	Little	30
600.2516666666667	0	n/a	360152	KeyDown	41324	3	Middle	30
600.5000000000000	0	n/a	360301	KeyDown	41324	2	Ring	30
600.8816666666667	0	n/a	360530	KeyDown	41324	4	Index	30
601.1750000000001	0	n/a	360706	KeyDown	41324	4	Index	30
601.5266666666668	0	n/a	360917	KeyDown	41324	3	Middle	30
602.1816666666667	0	n/a	361310	KeyDown	41324	1	Little	30
602.7716666666668	0	n/a	361664	KeyDown	41324	3	Middle	30
603.0066666666667	0	n/a	361805	KeyDown	41324	2	Ring	30
603.2966666666667	0	n/a	361979	KeyDown	41324	4	Index	30
603.5466666666667	0	n/a	362129	KeyDown	41324	4	Index	30
604.0983333333334	0	n/a	362460	KeyDown	41324	1	Little	30
604.4266666666667	0	n/a	362657	KeyDown	41324	3	Middle	30
604.6950000000001	0	n/a	362818	KeyDown	41324	2	Ring	30
604.7866666666667	0	n/a	362873	StopPractice	41324	n/a	n/a	30
604.7883333333334	0	n/a	362874	StartRest	XXXXX	n/a	n/a	30
614.8216666666667	0	n/a	368894	StopRest	XXXXX	n/a	n/a	30
614.8233333333334	0	UPPT001	368895	StartPractice	41324	n/a	n/a	31
615.5283333333334	0	n/a	369318	KeyDown	41324	4	Index	31
615.8566666666667	0	n/a	369515	KeyDown	41324	1	Little	31
616.1850000000001	0	n/a	369712	KeyDown	41324	2	Ring	31
616.7950000000001	0	n/a	370078	KeyDown	41324	3	Middle	31
618.9300000000001	0	n/a	371359	KeyDown	41324	4	Index	31
619.1733333333334	0	n/a	371505	KeyDown	41324	1	Little	31
619.4516666666667	0	n/a	371672	KeyDown	41324	3	Middle	31
619.7366666666667	0	n/a	371843	KeyDown	41324	2	Ring	31
620.0366666666667	0	n/a	372023	KeyDown	41324	4	Index	31
620.3116666666667	0	n/a	372188	KeyDown	41324	4	Index	31
620.6183333333333	0	n/a	372372	KeyDown	41324	1	Little	31
620.8850000000000	0	n/a	372532	KeyDown	41324	3	Middle	31
621.1166666666667	0	n/a	372671	KeyDown	41324	2	Ring	31
621.4583333333334	0	n/a	372876	KeyDown	41324	4	Index	31
621.7033333333334	0	n/a	373023	KeyDown	41324	4	Index	31
622.0883333333334	0	n/a	373254	KeyDown	41324	1	Little	31
622.4283333333334	0	n/a	373458	KeyDown	41324	3	Middle	31
622.6700000000001	0	n/a	373603	KeyDown	41324	2	Ring	31
622.9566666666667	0	n/a	373775	KeyDown	41324	4	Index	31
623.2183333333334	0	n/a	373932	KeyDown	41324	4	Index	31
623.5616666666667	0	n/a	374138	KeyDown	41324	1	Little	31
623.8816666666667	0	n/a	374330	KeyDown	41324	3	Middle	31
624.2116666666667	0	n/a	374528	KeyDown	41324	2	Ring	31
624.5000000000000	0	n/a	374701	KeyDown	41324	4	Index	31
624.7583333333333	0	n/a	374856	KeyDown	41324	4	Index	31
624.8616666666667	0	n/a	374918	StopPractice	41324	n/a	n/a	31
624.8633333333333	0	n/a	374919	StartRest	XXXXX	n/a	n/a	31
634.8966666666668	0	n/a	380939	StopRest	XXXXX	n/a	n/a	31
634.8983333333334	0	UPPT001	380940	StartPractice	41324	n/a	n/a	32
635.8783333333333	0	n/a	381528	KeyDown	41324	4	Index	32
636.1850000000001	0	n/a	381712	KeyDown	41324	1	Little	32
636.4633333333334	0	n/a	381879	KeyDown	41324	3	Middle	32
636.7600000000000	0	n/a	382057	KeyDown	41324	2	Ring	32
637.1066666666667	0	n/a	382265	KeyDown	41324	4	Index	32
637.3716666666667	0	n/a	382424	KeyDown	41324	4	Index	32
637.6750000000001	0	n/a	382606	KeyDown	41324	1	Little	32
638.0100000000000	0	n/a	382807	KeyDown	41324	3	Middle	32
638.2966666666667	0	n/a	382979	KeyDown	41324	2	Ring	32
638.5983333333334	0	n/a	383160	KeyDown	41324	4	Index	32
638.8766666666667	0	n/a	383327	KeyDown	41324	4	Index	32
639.1950000000001	0	n/a	383518	KeyDown	41324	1	Little	32
639.4666666666667	0	n/a	383681	KeyDown	41324	3	Middle	32
639.7683333333334	0	n/a	383862	KeyDown	41324	2	Ring	32
640.1000000000000	0	n/a	384061	KeyDown	41324	4	Index	32
640.3900000000000	0	n/a	384235	KeyDown	41324	4	Index	32
640.7133333333334	0	n/a	384429	KeyDown	41324	1	Little	32
641.0066666666667	0	n/a	384605	KeyDown	41324	3	Middle	32
641.3016666666667	0	n/a	384782	KeyDown	41324	2	Ring	32
641.6250000000000	0	n/a	384976	KeyDown	41324	4	Index	32
641.8950000000001	0	n/a	385138	KeyDown	41324	4	Index	32
642.1983333333334	0	n/a	385320	KeyDown	41324	1	Little	32
642.6100000000000	0	n/a	385567	KeyDown	41324	3	Middle	32
642.8650000000000	0	n/a	385720	KeyDown	41324	2	Ring	32
643.2050000000000	0	n/a	385924	KeyDown	41324	4	Index	32
643.4683333333334	0	n/a	386082	KeyDown	41324	4	Index	32
643.7266666666667	0	n/a	386237	KeyDown	41324	1	Little	32
644.1166666666667	0	n/a	386471	KeyDown	41324	3	Middle	32
644.4266666666667	0	n/a	386657	KeyDown	41324	2	Ring	32
644.8183333333334	0	n/a	386892	KeyDown	41324	4	Index	32
644.9366666666667	0	n/a	386963	StopPractice	41324	n/a	n/a	32
644.9383333333334	0	n/a	386964	StartRest	XXXXX	n/a	n/a	32
654.9700000000000	0	n/a	392983	StopRest	XXXXX	n/a	n/a	32
654.9716666666667	0	UPPT001	392984	StartPractice	41324	n/a	n/a	33
655.7200000000000	0	n/a	393433	KeyDown	41324	4	Index	33
656.0166666666668	0	n/a	393611	KeyDown	41324	1	Little	33
656.3033333333334	0	n/a	393783	KeyDown	41324	3	Middle	33
656.6000000000000	0	n/a	393961	KeyDown	41324	2	Ring	33
656.9183333333334	0	n/a	394152	KeyDown	41324	4	Index	33
657.1900000000001	0	n/a	394315	KeyDown	41324	4	Index	33
657.4933333333333	0	n/a	394497	KeyDown	41324	1	Little	33
657.7850000000001	0	n/a	394672	KeyDown	41324	3	Middle	33
658.0750000000000	0	n/a	394846	KeyDown	41324	2	Ring	33
658.3933333333334	0	n/a	395037	KeyDown	41324	4	Index	33
658.6900000000001	0	n/a	395215	KeyDown	41324	4	Index	33
659.0400000000001	0	n/a	395425	KeyDown	41324	1	Little	33
659.3150000000001	0	n/a	395590	KeyDown	41324	3	Middle	33
659.5633333333334	0	n/a	395739	KeyDown	41324	2	Ring	33
659.8733333333333	0	n/a	395925	KeyDown	41324	4	Index	33
660.1450000000001	0	n/a	396088	KeyDown	41324	4	Index	33
660.4433333333334	0	n/a	396267	KeyDown	41324	1	Little	33
660.7350000000000	0	n/a	396442	KeyDown	41324	3	Middle	33
661.0133333333333	0	n/a	396609	KeyDown	41324	2	Ring	33
661.3150000000001	0	n/a	396790	KeyDown	41324	4	Index	33
661.5783333333334	0	n/a	396948	KeyDown	41324	4	Index	33
661.8800000000000	0	n/a	397129	KeyDown	41324	1	Little	33
662.1900000000001	0	n/a	397315	KeyDown	41324	3	Middle	33
662.4533333333334	0	n/a	397473	KeyDown	41324	2	Ring	33
662.7750000000001	0	n/a	397666	KeyDown	41324	4	Index	33
663.0350000000001	0	n/a	397822	KeyDown	41324	4	Index	33
663.3283333333334	0	n/a	397998	KeyDown	41324	1	Little	33
663.6366666666667	0	n/a	398183	KeyDown	41324	3	Middle	33
663.9033333333334	0	n/a	398343	KeyDown	41324	2	Ring	33
664.2350000000000	0	n/a	398542	KeyDown	41324	4	Index	33
664.4933333333333	0	n/a	398697	KeyDown	41324	4	Index	33
664.7483333333333	0	n/a	398850	KeyDown	41324	1	Little	33
665.0100000000000	0	n/a	399007	StopPractice	41324	n/a	n/a	33
665.0116666666667	0	n/a	399008	StartRest	XXXXX	n/a	n/a	33
675.0450000000001	0	n/a	405028	StopRest	XXXXX	n/a	n/a	33
675.0466666666667	0	UPPT001	405029	StartPractice	41324	n/a	n/a	34
675.8083333333334	0	n/a	405486	KeyDown	41324	4	Index	34
676.1183333333333	0	n/a	405672	KeyDown	41324	1	Little	34
676.4733333333334	0	n/a	405885	KeyDown	41324	3	Middle	34
676.7483333333333	0	n/a	406050	KeyDown	41324	2	Ring	34
677.0616666666667	0	n/a	406238	KeyDown	41324	4	Index	34
677.3533333333334	0	n/a	406413	KeyDown	41324	4	Index	34
677.6500000000001	0	n/a	406591	KeyDown	41324	1	Little	34
677.9150000000001	0	n/a	406750	KeyDown	41324	3	Middle	34
678.1950000000001	0	n/a	406918	KeyDown	41324	2	Ring	34
678.5216666666668	0	n/a	407114	KeyDown	41324	4	Index	34
678.8133333333334	0	n/a	407289	KeyDown	41324	4	Index	34
679.1266666666667	0	n/a	407477	KeyDown	41324	1	Little	34
679.4100000000001	0	n/a	407647	KeyDown	41324	3	Middle	34
679.6816666666667	0	n/a	407810	KeyDown	41324	2	Ring	34
680.0100000000000	0	n/a	408007	KeyDown	41324	4	Index	34
680.2916666666667	0	n/a	408176	KeyDown	41324	4	Index	34
680.5783333333334	0	n/a	408348	KeyDown	41324	1	Little	34
680.8233333333334	0	n/a	408495	KeyDown	41324	3	Middle	34
681.1583333333334	0	n/a	408696	KeyDown	41324	2	Ring	34
681.4933333333333	0	n/a	408897	KeyDown	41324	4	Index	34
681.7683333333334	0	n/a	409062	KeyDown	41324	4	Index	34
682.3233333333334	0	n/a	409395	KeyDown	41324	2	Ring	34
682.3750000000000	0	n/a	409426	KeyDown	41324	1	Little	34
683.2666666666668	0	n/a	409961	KeyDown	41324	3	Middle	34
683.4983333333333	0	n/a	410100	KeyDown	41324	2	Ring	34
683.7816666666668	0	n/a	410270	KeyDown	41324	4	Index	34
684.0366666666667	0	n/a	410423	KeyDown	41324	4	Index	34
684.3366666666667	0	n/a	410603	KeyDown	41324	1	Little	34
684.6550000000001	0	n/a	410794	KeyDown	41324	3	Middle	34
684.9183333333334	0	n/a	410952	KeyDown	41324	2	Ring	34
685.0850000000000	0	n/a	411052	StopPractice	41324	n/a	n/a	34
685.0866666666667	0	n/a	411053	StartRest	XXXXX	n/a	n/a	34
695.1200000000000	0	n/a	417073	StopRest	XXXXX	n/a	n/a	34
695.1216666666667	0	UPPT001	417074	StartPractice	41324	n/a	n/a	35
696.1083333333333	0	n/a	417666	KeyDown	41324	4	Index	35
696.4233333333334	0	n/a	417855	KeyDown	41324	1	Little	35
696.7150000000000	0	n/a	418030	KeyDown	41324	3	Middle	35
697.0233333333334	0	n/a	418215	KeyDown	41324	2	Ring	35
697.7900000000001	0	n/a	418675	KeyDown	41324	4	Index	35
698.0350000000001	0	n/a	418822	KeyDown	41324	4	Index	35
698.3866666666667	0	n/a	419033	KeyDown	41324	1	Little	35
698.7350000000000	0	n/a	419242	KeyDown	41324	3	Middle	35
699.0350000000001	0	n/a	419422	KeyDown	41324	2	Ring	35
699.3916666666668	0	n/a	419636	KeyDown	41324	4	Index	35
699.6766666666667	0	n/a	419807	KeyDown	41324	4	Index	35
699.9733333333334	0	n/a	419985	KeyDown	41324	1	Little	35
700.3266666666667	0	n/a	420197	KeyDown	41324	3	Middle	35
700.5950000000000	0	n/a	420358	KeyDown	41324	2	Ring	35
700.9266666666667	0	n/a	420557	KeyDown	41324	4	Index	35
701.1950000000001	0	n/a	420718	KeyDown	41324	4	Index	35
701.5266666666668	0	n/a	420917	KeyDown	41324	1	Little	35
701.8733333333333	0	n/a	421125	KeyDown	41324	3	Middle	35
702.1383333333334	0	n/a	421284	KeyDown	41324	2	Ring	35
702.4933333333333	0	n/a	421497	KeyDown	41324	4	Index	35
702.7600000000000	0	n/a	421657	KeyDown	41324	4	Index	35
703.1283333333333	0	n/a	421878	KeyDown	41324	1	Little	35
703.4850000000000	0	n/a	422092	KeyDown	41324	3	Middle	35
703.7683333333334	0	n/a	422262	KeyDown	41324	2	Ring	35
704.0783333333334	0	n/a	422448	KeyDown	41324	4	Index	35
704.3516666666667	0	n/a	422612	KeyDown	41324	4	Index	35
704.6366666666667	0	n/a	422783	KeyDown	41324	1	Little	35
704.9133333333334	0	n/a	422949	KeyDown	41324	3	Middle	35
705.1600000000001	0	n/a	423097	StopPractice	41324	n/a	n/a	35
705.1616666666667	0	n/a	423098	StartRest	XXXXX	n/a	n/a	35
715.1950000000001	0	n/a	429118	StopRest	XXXXX	n/a	n/a	35
715.1966666666667	0	UPPT001	429119	StartPractice	41324	n/a	n/a	36
715.8366666666667	0	n/a	429503	KeyDown	41324	4	Index	36
716.1133333333333	0	n/a	429669	KeyDown	41324	1	Little	36
716.4200000000001	0	n/a	429853	KeyDown	41324	3	Middle	36
716.7066666666667	0	n/a	430025	KeyDown	41324	2	Ring	36
716.9816666666667	0	n/a	430190	KeyDown	41324	4	Index	36
717.2233333333334	0	n/a	430335	KeyDown	41324	4	Index	36
717.5100000000000	0	n/a	430507	KeyDown	41324	1	Little	36
717.7933333333334	0	n/a	430677	KeyDown	41324	3	Middle	36
718.0450000000001	0	n/a	430828	KeyDown	41324	2	Ring	36
718.3633333333333	0	n/a	431019	KeyDown	41324	4	Index	36
718.6300000000000	0	n/a	431179	KeyDown	41324	4	Index	36
718.8833333333333	0	n/a	431331	KeyDown	41324	1	Little	36
719.2033333333334	0	n/a	431523	KeyDown	41324	3	Middle	36
719.4433333333334	0	n/a	431667	KeyDown	41324	2	Ring	36
719.7333333333333	0	n/a	431841	KeyDown	41324	4	Index	36
719.9783333333334	0	n/a	431988	KeyDown	41324	4	Index	36
720.2383333333333	0	n/a	432144	KeyDown	41324	1	Little	36
720.4833333333333	0	n/a	432291	KeyDown	41324	3	Middle	36
720.7500000000000	0	n/a	432451	KeyDown	41324	2	Ring	36
721.0433333333334	0	n/a	432627	KeyDown	41324	4	Index	36
721.2983333333334	0	n/a	432780	KeyDown	41324	4	Index	36
721.5383333333334	0	n/a	432924	KeyDown	41324	1	Little	36
721.7900000000001	0	n/a	433075	KeyDown	41324	3	Middle	36
722.0700000000001	0	n/a	433243	KeyDown	41324	2	Ring	36
722.3466666666667	0	n/a	433409	KeyDown	41324	4	Index	36
722.5900000000000	0	n/a	433555	KeyDown	41324	4	Index	36
722.8550000000000	0	n/a	433714	KeyDown	41324	1	Little	36
723.1833333333334	0	n/a	433911	KeyDown	41324	3	Middle	36
723.8166666666667	0	n/a	434291	KeyDown	41324	2	Ring	36
724.1683333333334	0	n/a	434502	KeyDown	41324	4	Index	36
724.4150000000001	0	n/a	434650	KeyDown	41324	4	Index	36
724.7016666666667	0	n/a	434822	KeyDown	41324	1	Little	36
725.2016666666667	0	n/a	435122	KeyDown	41324	3	Middle	36
725.2350000000000	0	n/a	435142	StopPractice	41324	n/a	n/a	36
725.2366666666667	0	n/a	435143	StartRest	XXXXX	n/a	n/a	36
735.2716666666668	0	n/a	441164	StopRest	XXXXX	n/a	n/a	36
