onset	duration	channel	onset_sample_idx	event_type	target_sequence	keypress_id	finger_label	trial_number
28.2766666666667	0	UPPT001	16967	StartPractice	41324	n/a	n/a	1
29.3833333333333	0	n/a	17631	KeyDown	41324	1	Little	1
32.4683333333333	0	n/a	19482	KeyDown	41324	4	Index	1
34.7100000000000	0	n/a	20827	KeyDown	41324	3	Middle	1
36.1183333333333	0	n/a	21672	KeyDown	41324	2	Ring	1
38.3150000000000	0	n/a	22990	StopPractice	41324	n/a	n/a	1
38.3166666666667	0	n/a	22991	StartRest	XXXXX	n/a	n/a	1
48.3800000000000	0	n/a	29029	StopRest	XXXXX	n/a	n/a	1
48.3816666666667	0	UPPT001	29030	StartPractice	41324	n/a	n/a	2
49.7783333333333	0	n/a	29868	KeyDown	41324	1	Little	2
54.9000000000000	0	n/a	32941	KeyDown	41324	4	Index	2
58.4200000000000	0	n/a	35053	StopPractice	41324	n/a	n/a	2
58.4216666666667	0	n/a	35054	StartRest	XXXXX	n/a	n/a	2
68.4533333333333	0	n/a	41073	StopRest	XXXXX	n/a	n/a	2
68.4550000000000	0	UPPT001	41074	StartPractice	41324	n/a	n/a	3
69.2216666666667	0	n/a	41534	KeyDown	41324	4	Index	3
70.5966666666667	0	n/a	42359	KeyDown	41324	1	Little	3
72.9233333333333	0	n/a	43755	KeyDown	41324	3	Middle	3
74.5383333333333	0	n/a	44724	KeyDown	41324	2	Ring	3
75.3366666666667	0	n/a	45203	KeyDown	41324	4	Index	3
76.5533333333333	0	n/a	45933	KeyDown	41324	4	Index	3
78.4933333333333	0	n/a	47097	StopPractice	41324	n/a	n/a	3
78.4950000000000	0	n/a	47098	StartRest	XXXXX	n/a	n/a	3
88.5300000000000	0	n/a	53119	StopRest	XXXXX	n/a	n/a	3
88.5316666666667	0	UPPT001	53120	StartPractice	41324	n/a	n/a	4
89.5216666666667	0	n/a	53714	KeyDown	41324	4	Index	4
90.9266666666667	0	n/a	54557	KeyDown	41324	1	Little	4
92.1250000000000	0	n/a	55276	KeyDown	41324	4	Index	4
92.8083333333333	0	n/a	55686	KeyDown	41324	3	Middle	4
94.0566666666667	0	n/a	56435	KeyDown	41324	2	Ring	4
94.5683333333333	0	n/a	56742	KeyDown	41324	4	Index	4
98.5700000000000	0	n/a	59143	StopPractice	41324	n/a	n/a	4
98.5716666666667	0	n/a	59144	StartRest	XXXXX	n/a	n/a	4
108.6050000000000	0	n/a	65164	StopRest	XXXXX	n/a	n/a	4
108.6066666666667	0	UPPT001	65165	StartPractice	41324	n/a	n/a	5
110.5150000000000	0	n/a	66310	KeyDown	41324	4	Index	5
111.8700000000000	0	n/a	67123	KeyDown	41324	1	Little	5
113.1100000000000	0	n/a	67867	KeyDown	41324	3	Middle	5
114.1100000000000	0	n/a	68467	KeyDown	41324	2	Ring	5
114.8816666666667	0	n/a	68930	KeyDown	41324	4	Index	5
117.1133333333333	0	n/a	70269	KeyDown	41324	4	Index	5
118.6450000000000	0	n/a	71188	StopPractice	41324	n/a	n/a	5
118.6466666666667	0	n/a	71189	StartRest	XXXXX	n/a	n/a	5
128.6783333333333	0	n/a	77208	StopRest	XXXXX	n/a	n/a	5
128.6800000000000	0	UPPT001	77209	StartPractice	41324	n/a	n/a	6
131.5616666666667	0	n/a	78938	KeyDown	41324	4	Index	6
132.6050000000000	0	n/a	79564	KeyDown	41324	1	Little	6
134.3666666666667	0	n/a	80621	KeyDown	41324	3	Middle	6
135.4283333333333	0	n/a	81258	KeyDown	41324	2	Ring	6
136.2966666666667	0	n/a	81779	KeyDown	41324	4	Index	6
137.8933333333333	0	n/a	82737	KeyDown	41324	4	Index	6
138.7183333333333	0	n/a	83232	StopPractice	41324	n/a	n/a	6
138.7200000000000	0	n/a	83233	StartRest	XXXXX	n/a	n/a	6
148.7533333333333	0	n/a	89253	StopRest	XXXXX	n/a	n/a	6
148.7550000000000	0	UPPT001	89254	StartPractice	41324	n/a	n/a	7
149.5866666666667	0	n/a	89753	KeyDown	41324	4	Index	7
150.8816666666667	0	n/a	90530	KeyDown	41324	1	Little	7
153.1233333333333	0	n/a	91875	KeyDown	41324	3	Middle	7
154.6883333333333	0	n/a	92814	KeyDown	41324	2	Ring	7
156.0383333333334	0	n/a	93624	KeyDown	41324	4	Index	7
157.2166666666667	0	n/a	94331	KeyDown	41324	4	Index	7
158.4750000000000	0	n/a	95086	KeyDown	41324	1	Little	7
158.7933333333334	0	n/a	95277	StopPractice	41324	n/a	n/a	7
158.7950000000000	0	n/a	95278	StartRest	XXXXX	n/a	n/a	7
168.8283333333333	0	n/a	101298	StopRest	XXXXX	n/a	n/a	7
168.8300000000000	0	UPPT001	101299	StartPractice	41324	n/a	n/a	8
170.3483333333334	0	n/a	102210	KeyDown	41324	4	Index	8
171.1583333333333	0	n/a	102696	KeyDown	41324	1	Little	8
172.7700000000000	0	n/a	103663	KeyDown	41324	3	Middle	8
173.6350000000000	0	n/a	104182	KeyDown	41324	2	Ring	8
174.8650000000000	0	n/a	104920	KeyDown	41324	4	Index	8
175.9983333333333	0	n/a	105600	KeyDown	41324	4	Index	8
177.0616666666667	0	n/a	106238	KeyDown	41324	1	Little	8
178.5016666666667	0	n/a	107102	KeyDown	41324	3	Middle	8
178.8683333333333	0	n/a	107322	StopPractice	41324	n/a	n/a	8
178.8700000000000	0	n/a	107323	StartRest	XXXXX	n/a	n/a	8
188.9033333333333	0	n/a	113343	StopRest	XXXXX	n/a	n/a	8
188.9050000000000	0	UPPT001	113344	StartPractice	41324	n/a	n/a	9
189.9766666666667	0	n/a	113987	KeyDown	41324	4	Index	9
190.9583333333333	0	n/a	114576	KeyDown	41324	1	Little	9
194.0416666666667	0	n/a	116426	KeyDown	41324	3	Middle	9
194.7683333333333	0	n/a	116862	KeyDown	41324	2	Ring	9
195.2050000000000	0	n/a	117124	KeyDown	41324	4	Index	9
196.5233333333333	0	n/a	117915	KeyDown	41324	4	Index	9
197.8933333333333	0	n/a	118737	KeyDown	41324	1	Little	9
198.9433333333334	0	n/a	119367	StopPractice	41324	n/a	n/a	9
198.9450000000000	0	n/a	119368	StartRest	XXXXX	n/a	n/a	9
208.9783333333334	0	n/a	125388	StopRest	XXXXX	n/a	n/a	9
208.9800000000000	0	UPPT001	125389	StartPractice	41324	n/a	n/a	10
210.3666666666667	0	n/a	126221	KeyDown	41324	4	Index	10
211.2516666666667	0	n/a	126752	KeyDown	41324	1	Little	10
212.5716666666667	0	n/a	127544	KeyDown	41324	3	Middle	10
213.4350000000000	0	n/a	128062	KeyDown	41324	2	Ring	10
213.9516666666667	0	n/a	128372	KeyDown	41324	4	Index	10
214.5516666666667	0	n/a	128732	KeyDown	41324	4	Index	10
215.3316666666667	0	n/a	129200	KeyDown	41324	1	Little	10
216.8716666666667	0	n/a	130124	KeyDown	41324	3	Middle	10
217.4566666666667	0	n/a	130475	KeyDown	41324	2	Ring	10
217.8350000000000	0	n/a	130702	KeyDown	41324	4	Index	10
218.5483333333333	0	n/a	131130	KeyDown	41324	4	Index	10
219.0183333333333	0	n/a	131412	StopPractice	41324	n/a	n/a	10
219.0200000000000	0	n/a	131413	StartRest	XXXXX	n/a	n/a	10
229.0533333333333	0	n/a	137433	StopRest	XXXXX	n/a	n/a	10
229.0550000000000	0	UPPT001	137434	StartPractice	41324	n/a	n/a	11
230.0783333333333	0	n/a	138048	KeyDown	41324	4	Index	11
231.1683333333334	0	n/a	138702	KeyDown	41324	1	Little	11
232.8216666666667	0	n/a	139694	KeyDown	41324	3	Middle	11
233.4133333333334	0	n/a	140049	KeyDown	41324	2	Ring	11
233.9650000000000	0	n/a	140380	KeyDown	41324	4	Index	11
234.5683333333334	0	n/a	140742	KeyDown	41324	4	Index	11
235.6016666666667	0	n/a	141362	KeyDown	41324	1	Little	11
236.8016666666667	0	n/a	142082	KeyDown	41324	3	Middle	11
237.2533333333334	0	n/a	142353	KeyDown	41324	2	Ring	11
237.7516666666667	0	n/a	142652	KeyDown	41324	4	Index	11
238.3833333333334	0	n/a	143031	KeyDown	41324	4	Index	11
239.0933333333334	0	n/a	143457	StopPractice	41324	n/a	n/a	11
239.0950000000000	0	n/a	143458	StartRest	XXXXX	n/a	n/a	11
249.1283333333334	0	n/a	149478	StopRest	XXXXX	n/a	n/a	11
249.1300000000000	0	UPPT001	149479	StartPractice	41324	n/a	n/a	12
250.6283333333334	0	n/a	150378	KeyDown	41324	4	Index	12
251.4216666666667	0	n/a	150854	KeyDown	41324	1	Little	12
252.6000000000000	0	n/a	151561	KeyDown	41324	3	Middle	12
253.3933333333333	0	n/a	152037	KeyDown	41324	2	Ring	12
254.1516666666667	0	n/a	152492	KeyDown	41324	4	Index	12
254.9983333333334	0	n/a	153000	KeyDown	41324	4	Index	12
255.6416666666667	0	n/a	153386	KeyDown	41324	1	Little	12
257.7066666666667	0	n/a	154625	KeyDown	41324	3	Middle	12
258.5516666666667	0	n/a	155132	KeyDown	41324	2	Ring	12
258.7016666666667	0	n/a	155222	KeyDown	41324	2	Ring	12
259.1683333333334	0	n/a	155502	StopPractice	41324	n/a	n/a	12
259.1700000000000	0	n/a	155503	StartRest	XXXXX	n/a	n/a	12
269.2016666666667	0	n/a	161522	StopRest	XXXXX	n/a	n/a	12
269.2033333333334	0	UPPT001	161523	StartPractice	41324	n/a	n/a	13
270.4483333333333	0	n/a	162270	KeyDown	41324	4	Index	13
271.0516666666667	0	n/a	162632	KeyDown	41324	1	Little	13
272.5350000000000	0	n/a	163522	KeyDown	41324	3	Middle	13
273.0966666666667	0	n/a	163859	KeyDown	41324	2	Ring	13
273.5533333333333	0	n/a	164133	KeyDown	41324	4	Index	13
274.0850000000000	0	n/a	164452	KeyDown	41324	4	Index	13
274.7400000000000	0	n/a	164845	KeyDown	41324	1	Little	13
276.6500000000000	0	n/a	165991	KeyDown	41324	3	Middle	13
277.1183333333333	0	n/a	166272	KeyDown	41324	2	Ring	13
277.5500000000000	0	n/a	166531	KeyDown	41324	4	Index	13
278.1316666666667	0	n/a	166880	KeyDown	41324	4	Index	13
278.7116666666667	0	n/a	167228	KeyDown	41324	1	Little	13
279.2416666666667	0	n/a	167546	StopPractice	41324	n/a	n/a	13
279.2433333333333	0	n/a	167547	StartRest	XXXXX	n/a	n/a	13
289.2783333333334	0	n/a	173568	StopRest	XXXXX	n/a	n/a	13
289.2800000000000	0	UPPT001	173569	StartPractice	41324	n/a	n/a	14
290.2683333333334	0	n/a	174162	KeyDown	41324	4	Index	14
291.3250000000000	0	n/a	174796	KeyDown	41324	1	Little	14
292.4333333333333	0	n/a	175461	KeyDown	41324	3	Middle	14
292.9766666666667	0	n/a	175787	KeyDown	41324	2	Ring	14
293.3783333333333	0	n/a	176028	KeyDown	41324	4	Index	14
293.8383333333334	0	n/a	176304	KeyDown	41324	4	Index	14
294.5650000000000	0	n/a	176740	KeyDown	41324	1	Little	14
296.1633333333334	0	n/a	177699	KeyDown	41324	3	Middle	14
296.6766666666667	0	n/a	178007	KeyDown	41324	2	Ring	14
297.1266666666667	0	n/a	178277	KeyDown	41324	4	Index	14
297.6183333333333	0	n/a	178572	KeyDown	41324	4	Index	14
298.1483333333334	0	n/a	178890	KeyDown	41324	1	Little	14
299.1166666666667	0	n/a	179471	KeyDown	41324	2	Ring	14
299.1233333333333	0	n/a	179475	KeyDown	41324	3	Middle	14
299.3183333333333	0	n/a	179592	StopPractice	41324	n/a	n/a	14
299.3200000000000	0	n/a	179593	StartRest	XXXXX	n/a	n/a	14
309.3516666666667	0	n/a	185612	StopRest	XXXXX	n/a	n/a	14
309.3533333333334	0	UPPT001	185613	StartPractice	41324	n/a	n/a	15
310.1350000000000	0	n/a	186082	KeyDown	41324	4	Index	15
310.7166666666667	0	n/a	186431	KeyDown	41324	1	Little	15
313.9166666666667	0	n/a	188351	KeyDown	41324	4	Index	15
314.4350000000000	0	n/a	188662	KeyDown	41324	3	Middle	15
315.2650000000000	0	n/a	189160	KeyDown	41324	2	Ring	15
315.7550000000000	0	n/a	189454	KeyDown	41324	4	Index	15
316.5800000000000	0	n/a	189949	KeyDown	41324	4	Index	15
317.4533333333334	0	n/a	190473	KeyDown	41324	1	Little	15
319.3916666666667	0	n/a	191636	StopPractice	41324	n/a	n/a	15
319.3933333333334	0	n/a	191637	StartRest	XXXXX	n/a	n/a	15
329.4283333333333	0	n/a	197658	StopRest	XXXXX	n/a	n/a	15
329.4300000000000	0	UPPT001	197659	StartPractice	41324	n/a	n/a	16
330.1883333333333	0	n/a	198114	KeyDown	41324	4	Index	16
331.1116666666667	0	n/a	198668	KeyDown	41324	1	Little	16
332.4666666666667	0	n/a	199481	KeyDown	41324	3	Middle	16
332.9566666666667	0	n/a	199775	KeyDown	41324	2	Ring	16
333.4566666666667	0	n/a	200075	KeyDown	41324	4	Index	16
334.9650000000000	0	n/a	200980	KeyDown	41324	4	Index	16
335.6733333333333	0	n/a	201405	KeyDown	41324	1	Little	16
336.3933333333334	0	n/a	201837	KeyDown	41324	2	Ring	16
337.1133333333333	0	n/a	202269	KeyDown	41324	3	Middle	16
337.4833333333333	0	n/a	202491	KeyDown	41324	4	Index	16
338.3566666666667	0	n/a	203015	KeyDown	41324	4	Index	16
339.4683333333334	0	n/a	203682	StopPractice	41324	n/a	n/a	16
339.4700000000000	0	n/a	203683	StartRest	XXXXX	n/a	n/a	16
349.5016666666667	0	n/a	209702	StopRest	XXXXX	n/a	n/a	16
349.5033333333333	0	UPPT001	209703	StartPractice	41324	n/a	n/a	17
350.1266666666667	0	n/a	210077	KeyDown	41324	4	Index	17
351.1516666666667	0	n/a	210692	KeyDown	41324	1	Little	17
353.4416666666667	0	n/a	212066	KeyDown	41324	3	Middle	17
353.9500000000000	0	n/a	212371	KeyDown	41324	2	Ring	17
354.3933333333334	0	n/a	212637	KeyDown	41324	4	Index	17
354.8450000000000	0	n/a	212908	KeyDown	41324	4	Index	17
355.6683333333334	0	n/a	213402	KeyDown	41324	1	Little	17
356.9950000000000	0	n/a	214198	KeyDown	41324	3	Middle	17
357.3983333333334	0	n/a	214440	KeyDown	41324	2	Ring	17
357.7266666666667	0	n/a	214637	KeyDown	41324	4	Index	17
358.2566666666667	0	n/a	214955	KeyDown	41324	4	Index	17
359.0700000000001	0	n/a	215443	KeyDown	41324	1	Little	17
359.5416666666667	0	n/a	215726	StopPractice	41324	n/a	n/a	17
359.5433333333334	0	n/a	215727	StartRest	XXXXX	n/a	n/a	17
369.5766666666667	0	n/a	221747	StopRest	XXXXX	n/a	n/a	17
369.5783333333334	0	UPPT001	221748	StartPractice	41324	n/a	n/a	18
370.2466666666667	0	n/a	222149	KeyDown	41324	4	Index	18
370.8716666666667	0	n/a	222524	KeyDown	41324	1	Little	18
373.1200000000000	0	n/a	223873	KeyDown	41324	3	Middle	18
373.6750000000000	0	n/a	224206	KeyDown	41324	2	Ring	18
374.2616666666667	0	n/a	224558	KeyDown	41324	4	Index	18
374.9500000000000	0	n/a	224971	KeyDown	41324	4	Index	18
376.1700000000000	0	n/a	225703	KeyDown	41324	1	Little	18
378.4600000000000	0	n/a	227077	KeyDown	41324	3	Middle	18
379.0616666666667	0	n/a	227438	KeyDown	41324	2	Ring	18
379.6166666666667	0	n/a	227771	StopPractice	41324	n/a	n/a	18
379.6183333333333	0	n/a	227772	StartRest	XXXXX	n/a	n/a	18
389.6516666666667	0	n/a	233792	StopRest	XXXXX	n/a	n/a	18
389.6533333333334	0	UPPT001	233793	StartPractice	41324	n/a	n/a	19
390.3116666666667	0	n/a	234188	KeyDown	41324	4	Index	19
390.9200000000000	0	n/a	234553	KeyDown	41324	1	Little	19
391.9583333333334	0	n/a	235176	KeyDown	41324	3	Middle	19
392.4416666666667	0	n/a	235466	KeyDown	41324	2	Ring	19
392.9183333333334	0	n/a	235752	KeyDown	41324	4	Index	19
393.3466666666667	0	n/a	236009	KeyDown	41324	4	Index	19
394.0550000000000	0	n/a	236434	KeyDown	41324	1	Little	19
395.2316666666667	0	n/a	237140	KeyDown	41324	3	Middle	19
395.6350000000000	0	n/a	237382	KeyDown	41324	2	Ring	19
396.1366666666667	0	n/a	237683	KeyDown	41324	4	Index	19
397.0216666666667	0	n/a	238214	KeyDown	41324	4	Index	19
397.9700000000000	0	n/a	238783	KeyDown	41324	1	Little	19
399.6916666666667	0	n/a	239816	StopPractice	41324	n/a	n/a	19
399.6933333333334	0	n/a	239817	StartRest	XXXXX	n/a	n/a	19
409.7266666666667	0	n/a	245837	StopRest	XXXXX	n/a	n/a	19
409.7283333333334	0	UPPT001	245838	StartPractice	41324	n/a	n/a	20
410.6400000000000	0	n/a	246385	KeyDown	41324	4	Index	20
411.7266666666667	0	n/a	247037	KeyDown	41324	1	Little	20
413.2416666666667	0	n/a	247946	KeyDown	41324	3	Middle	20
414.3466666666667	0	n/a	248609	KeyDown	41324	2	Ring	20
415.0650000000001	0	n/a	249040	KeyDown	41324	4	Index	20
415.5350000000000	0	n/a	249322	KeyDown	41324	4	Index	20
416.2200000000000	0	n/a	249733	KeyDown	41324	1	Little	20
418.0050000000001	0	n/a	250804	KeyDown	41324	3	Middle	20
418.3800000000001	0	n/a	251029	KeyDown	41324	2	Ring	20
418.7233333333334	0	n/a	251235	KeyDown	41324	4	Index	20
419.3216666666667	0	n/a	251594	KeyDown	41324	4	Index	20
419.7666666666667	0	n/a	251861	StopPractice	41324	n/a	n/a	20
419.7683333333334	0	n/a	251862	StartRest	XXXXX	n/a	n/a	20
429.8016666666667	0	n/a	257882	StopRest	XXXXX	n/a	n/a	20
429.8033333333333	0	UPPT001	257883	StartPractice	41324	n/a	n/a	21
430.7850000000000	0	n/a	258472	KeyDown	41324	4	Index	21
431.3433333333334	0	n/a	258807	KeyDown	41324	1	Little	21
432.9066666666667	0	n/a	259745	KeyDown	41324	3	Middle	21
433.5450000000000	0	n/a	260128	KeyDown	41324	2	Ring	21
434.4883333333333	0	n/a	260694	KeyDown	41324	4	Index	21
435.3333333333334	0	n/a	261201	KeyDown	41324	1	Little	21
436.4833333333333	0	n/a	261891	KeyDown	41324	4	Index	21
438.3816666666667	0	n/a	263030	KeyDown	41324	1	Little	21
439.8416666666667	0	n/a	263906	StopPractice	41324	n/a	n/a	21
439.8433333333334	0	n/a	263907	StartRest	XXXXX	n/a	n/a	21
449.8766666666667	0	n/a	269927	StopRest	XXXXX	n/a	n/a	21
449.8783333333334	0	UPPT001	269928	StartPractice	41324	n/a	n/a	22
450.6133333333333	0	n/a	270369	KeyDown	41324	4	Index	22
451.7750000000000	0	n/a	271066	KeyDown	41324	1	Little	22
453.1516666666667	0	n/a	271892	KeyDown	41324	3	Middle	22
453.8716666666667	0	n/a	272324	KeyDown	41324	2	Ring	22
454.5600000000000	0	n/a	272737	KeyDown	41324	4	Index	22
455.1533333333334	0	n/a	273093	KeyDown	41324	4	Index	22
455.8683333333333	0	n/a	273522	KeyDown	41324	1	Little	22
456.8116666666667	0	n/a	274088	KeyDown	41324	2	Ring	22
457.9600000000000	0	n/a	274777	KeyDown	41324	3	Middle	22
458.3250000000000	0	n/a	274996	KeyDown	41324	4	Index	22
458.7500000000001	0	n/a	275251	KeyDown	41324	4	Index	22
459.5016666666667	0	n/a	275702	KeyDown	41324	1	Little	22
459.9166666666667	0	n/a	275951	StopPractice	41324	n/a	n/a	22
459.9183333333334	0	n/a	275952	StartRest	XXXXX	n/a	n/a	22
469.9500000000000	0	n/a	281971	StopRest	XXXXX	n/a	n/a	22
469.9516666666667	0	UPPT001	281972	StartPractice	41324	n/a	n/a	23
470.6566666666667	0	n/a	282395	KeyDown	41324	4	Index	23
471.3450000000000	0	n/a	282808	KeyDown	41324	1	Little	23
472.4283333333333	0	n/a	283458	KeyDown	41324	3	Middle	23
472.8533333333334	0	n/a	283713	KeyDown	41324	2	Ring	23
473.3783333333334	0	n/a	284028	KeyDown	41324	4	Index	23
473.7583333333334	0	n/a	284256	KeyDown	41324	4	Index	23
474.8783333333334	0	n/a	284928	KeyDown	41324	1	Little	23
477.0466666666667	0	n/a	286229	KeyDown	41324	3	Middle	23
477.6133333333333	0	n/a	286569	KeyDown	41324	2	Ring	23
478.0933333333334	0	n/a	286857	KeyDown	41324	4	Index	23
478.5083333333334	0	n/a	287106	KeyDown	41324	4	Index	23
479.3050000000000	0	n/a	287584	KeyDown	41324	1	Little	23
479.9900000000000	0	n/a	287995	StopPractice	41324	n/a	n/a	23
479.9916666666667	0	n/a	287996	StartRest	XXXXX	n/a	n/a	23
490.0266666666667	0	n/a	294017	StopRest	XXXXX	n/a	n/a	23
490.0283333333334	0	UPPT001	294018	StartPractice	41324	n/a	n/a	24
490.9433333333334	0	n/a	294567	KeyDown	41324	4	Index	24
491.7900000000000	0	n/a	295075	KeyDown	41324	1	Little	24
492.9050000000000	0	n/a	295744	KeyDown	41324	3	Middle	24
493.3016666666667	0	n/a	295982	KeyDown	41324	2	Ring	24
494.0650000000001	0	n/a	296440	KeyDown	41324	4	Index	24
494.8800000000001	0	n/a	296929	KeyDown	41324	4	Index	24
495.6916666666667	0	n/a	297416	KeyDown	41324	1	Little	24
496.7050000000000	0	n/a	298024	KeyDown	41324	3	Middle	24
497.0983333333334	0	n/a	298260	KeyDown	41324	2	Ring	24
497.5316666666667	0	n/a	298520	KeyDown	41324	4	Index	24
497.9983333333334	0	n/a	298800	KeyDown	41324	4	Index	24
498.4383333333334	0	n/a	299064	KeyDown	41324	1	Little	24
499.4466666666667	0	n/a	299669	KeyDown	41324	3	Middle	24
500.0666666666667	0	n/a	300041	StopPractice	41324	n/a	n/a	24
500.0683333333334	0	n/a	300042	StartRest	XXXXX	n/a	n/a	24
510.1000000000000	0	n/a	306061	StopRest	XXXXX	n/a	n/a	24
510.1016666666667	0	UPPT001	306062	StartPractice	41324	n/a	n/a	25
510.9833333333333	0	n/a	306591	KeyDown	41324	4	Index	25
511.5233333333334	0	n/a	306915	KeyDown	41324	1	Little	25
513.1333333333333	0	n/a	307881	KeyDown	41324	3	Middle	25
513.6800000000001	0	n/a	308209	KeyDown	41324	2	Ring	25
514.4583333333334	0	n/a	308676	KeyDown	41324	4	Index	25
515.1733333333334	0	n/a	309105	KeyDown	41324	4	Index	25
516.0600000000001	0	n/a	309637	KeyDown	41324	1	Little	25
517.0450000000001	0	n/a	310228	KeyDown	41324	3	Middle	25
517.5300000000001	0	n/a	310519	KeyDown	41324	2	Ring	25
518.0266666666668	0	n/a	310817	KeyDown	41324	4	Index	25
518.3883333333333	0	n/a	311034	KeyDown	41324	4	Index	25
518.8300000000000	0	n/a	311299	KeyDown	41324	1	Little	25
519.7433333333333	0	n/a	311847	KeyDown	41324	3	Middle	25
520.1400000000000	0	n/a	312085	StopPractice	41324	n/a	n/a	25
520.1416666666667	0	n/a	312086	StartRest	XXXXX	n/a	n/a	25
530.1750000000001	0	n/a	318106	StopRest	XXXXX	n/a	n/a	25
530.1766666666667	0	UPPT001	318107	StartPractice	41324	n/a	n/a	26
530.3283333333334	0	n/a	318198	KeyDown	41324	2	Ring	26
531.2466666666667	0	n/a	318749	KeyDown	41324	4	Index	26
531.7883333333334	0	n/a	319074	KeyDown	41324	1	Little	26
532.7950000000001	0	n/a	319678	KeyDown	41324	3	Middle	26
533.2000000000000	0	n/a	319921	KeyDown	41324	2	Ring	26
533.6250000000000	0	n/a	320176	KeyDown	41324	4	Index	26
534.0283333333334	0	n/a	320418	KeyDown	41324	4	Index	26
534.5183333333333	0	n/a	320712	KeyDown	41324	1	Little	26
535.2733333333333	0	n/a	321165	KeyDown	41324	3	Middle	26
535.6600000000001	0	n/a	321397	KeyDown	41324	2	Ring	26
536.1166666666667	0	n/a	321671	KeyDown	41324	4	Index	26
537.3300000000000	0	n/a	322399	KeyDown	41324	4	Index	26
537.7916666666667	0	n/a	322676	KeyDown	41324	1	Little	26
538.7400000000000	0	n/a	323245	KeyDown	41324	3	Middle	26
539.2133333333334	0	n/a	323529	KeyDown	41324	2	Ring	26
539.6466666666666	0	n/a	323789	KeyDown	41324	4	Index	26
540.2150000000000	0	n/a	324130	StopPractice	41324	n/a	n/a	26
540.2166666666667	0	n/a	324131	StartRest	XXXXX	n/a	n/a	26
550.2516666666667	0	n/a	330152	StopRest	XXXXX	n/a	n/a	26
550.2533333333333	0	UPPT001	330153	StartPractice	41324	n/a	n/a	27
550.9416666666667	0	n/a	330566	KeyDown	41324	4	Index	27
551.4450000000001	0	n/a	330868	KeyDown	41324	1	Little	27
552.2683333333333	0	n/a	331362	KeyDown	41324	3	Middle	27
552.8100000000001	0	n/a	331687	KeyDown	41324	2	Ring	27
553.1800000000001	0	n/a	331909	KeyDown	41324	4	Index	27
553.5350000000001	0	n/a	332122	KeyDown	41324	4	Index	27
554.0683333333334	0	n/a	332442	KeyDown	41324	1	Little	27
554.9100000000001	0	n/a	332947	KeyDown	41324	3	Middle	27
555.3600000000000	0	n/a	333217	KeyDown	41324	2	Ring	27
555.7183333333334	0	n/a	333432	KeyDown	41324	4	Index	27
556.0833333333334	0	n/a	333651	KeyDown	41324	4	Index	27
556.5966666666667	0	n/a	333959	KeyDown	41324	1	Little	27
557.3433333333334	0	n/a	334407	KeyDown	41324	3	Middle	27
557.8250000000000	0	n/a	334696	KeyDown	41324	2	Ring	27
558.2466666666667	0	n/a	334949	KeyDown	41324	4	Index	27
558.6983333333334	0	n/a	335220	KeyDown	41324	4	Index	27
559.1716666666667	0	n/a	335504	KeyDown	41324	1	Little	27
560.0200000000000	0	n/a	336013	KeyDown	41324	3	Middle	27
560.2916666666667	0	n/a	336176	StopPractice	41324	n/a	n/a	27
560.2933333333334	0	n/a	336177	StartRest	XXXXX	n/a	n/a	27
570.3250000000000	0	n/a	342196	StopRest	XXXXX	n/a	n/a	27
570.3266666666667	0	UPPT001	342197	StartPractice	41324	n/a	n/a	28
571.0433333333334	0	n/a	342627	KeyDown	41324	4	Index	28
571.5400000000001	0	n/a	342925	KeyDown	41324	1	Little	28
572.1533333333334	0	n/a	343293	KeyDown	41324	3	Middle	28
572.5833333333334	0	n/a	343551	KeyDown	41324	2	Ring	28
573.0333333333334	0	n/a	343821	KeyDown	41324	4	Index	28
573.4200000000001	0	n/a	344053	KeyDown	41324	4	Index	28
574.2850000000001	0	n/a	344572	KeyDown	41324	1	Little	28
574.9783333333334	0	n/a	344988	KeyDown	41324	3	Middle	28
575.3850000000000	0	n/a	345232	KeyDown	41324	2	Ring	28
575.7633333333333	0	n/a	345459	KeyDown	41324	4	Index	28
576.2850000000001	0	n/a	345772	KeyDown	41324	4	Index	28
576.8500000000000	0	n/a	346111	KeyDown	41324	1	Little	28
577.6816666666667	0	n/a	346610	KeyDown	41324	3	Middle	28
578.0433333333334	0	n/a	346827	KeyDown	41324	2	Ring	28
579.2300000000000	0	n/a	347539	KeyDown	41324	4	Index	28
579.6400000000000	0	n/a	347785	KeyDown	41324	4	Index	28
580.0933333333334	0	n/a	348057	KeyDown	41324	1	Little	28
580.3650000000000	0	n/a	348220	StopPractice	41324	n/a	n/a	28
580.3666666666667	0	n/a	348221	StartRest	XXXXX	n/a	n/a	28
590.4000000000001	0	n/a	354241	StopRest	XXXXX	n/a	n/a	28
590.4016666666668	0	UPPT001	354242	StartPractice	41324	n/a	n/a	29
591.0850000000000	0	n/a	354652	KeyDown	41324	4	Index	29
591.5183333333333	0	n/a	354912	KeyDown	41324	1	Little	29
592.0900000000000	0	n/a	355255	KeyDown	41324	3	Middle	29
592.4000000000001	0	n/a	355441	KeyDown	41324	2	Ring	29
593.0533333333334	0	n/a	355833	KeyDown	41324	4	Index	29
593.4633333333334	0	n/a	356079	KeyDown	41324	4	Index	29
593.8883333333333	0	n/a	356334	KeyDown	41324	1	Little	29
594.5616666666667	0	n/a	356738	KeyDown	41324	3	Middle	29
594.9200000000001	0	n/a	356953	KeyDown	41324	2	Ring	29
595.3600000000000	0	n/a	357217	KeyDown	41324	4	Index	29
595.7550000000000	0	n/a	357454	KeyDown	41324	4	Index	29
596.1483333333334	0	n/a	357690	KeyDown	41324	1	Little	29
596.7600000000000	0	n/a	358057	KeyDown	41324	3	Middle	29
597.1150000000000	0	n/a	358270	KeyDown	41324	2	Ring	29
597.4250000000001	0	n/a	358456	KeyDown	41324	4	Index	29
597.7883333333334	0	n/a	358674	KeyDown	41324	4	Index	29
598.1900000000001	0	n/a	358915	KeyDown	41324	1	Little	29
598.7483333333333	0	n/a	359250	KeyDown	41324	3	Middle	29
599.3683333333333	0	n/a	359622	KeyDown	41324	2	Ring	29
599.7033333333334	0	n/a	359823	KeyDown	41324	4	Index	29
600.1183333333333	0	n/a	360072	KeyDown	41324	4	Index	29
600.4400000000001	0	n/a	360265	StopPractice	41324	n/a	n/a	29
600.4416666666667	0	n/a	360266	StartRest	XXXXX	n/a	n/a	29
610.4750000000000	0	n/a	366286	StopRest	XXXXX	n/a	n/a	29
610.4766666666667	0	UPPT001	366287	StartPractice	41324	n/a	n/a	30
611.1516666666668	0	n/a	366692	KeyDown	41324	4	Index	30
611.5650000000001	0	n/a	366940	KeyDown	41324	1	Little	30
612.0800000000000	0	n/a	367249	KeyDown	41324	3	Middle	30
612.3783333333333	0	n/a	367428	KeyDown	41324	2	Ring	30
612.7100000000000	0	n/a	367627	KeyDown	41324	3	Middle	30
613.1450000000001	0	n/a	367888	KeyDown	41324	4	Index	30
613.5450000000001	0	n/a	368128	KeyDown	41324	1	Little	30
614.2350000000000	0	n/a	368542	KeyDown	41324	3	Middle	30
614.5550000000001	0	n/a	368734	KeyDown	41324	2	Ring	30
614.8883333333333	0	n/a	368934	KeyDown	41324	3	Middle	30
615.2700000000001	0	n/a	369163	KeyDown	41324	4	Index	30
615.8050000000001	0	n/a	369484	KeyDown	41324	1	Little	30
616.5050000000000	0	n/a	369904	KeyDown	41324	4	Index	30
617.2083333333334	0	n/a	370326	KeyDown	41324	3	Middle	30
617.6566666666668	0	n/a	370595	KeyDown	41324	2	Ring	30
618.0516666666667	0	n/a	370832	KeyDown	41324	4	Index	30
618.5966666666667	0	n/a	371159	KeyDown	41324	1	Little	30
619.3000000000001	0	n/a	371581	KeyDown	41324	4	Index	30
620.0433333333334	0	n/a	372027	KeyDown	41324	2	Ring	30
620.4933333333333	0	n/a	372297	KeyDown	41324	3	Middle	30
620.5150000000000	0	n/a	372310	StopPractice	41324	n/a	n/a	30
620.5166666666667	0	n/a	372311	StartRest	XXXXX	n/a	n/a	30
630.5500000000001	0	n/a	378331	StopRest	XXXXX	n/a	n/a	30
630.5516666666667	0	UPPT001	378332	StartPractice	41324	n/a	n/a	31
631.2983333333334	0	n/a	378780	KeyDown	41324	4	Index	31
631.7300000000000	0	n/a	379039	KeyDown	41324	1	Little	31
632.2866666666667	0	n/a	379373	KeyDown	41324	3	Middle	31
632.6083333333333	0	n/a	379566	KeyDown	41324	2	Ring	31
632.9783333333334	0	n/a	379788	KeyDown	41324	3	Middle	31
632.9900000000000	0	n/a	379795	KeyDown	41324	4	Index	31
633.5050000000000	0	n/a	380104	KeyDown	41324	4	Index	31
633.9516666666667	0	n/a	380372	KeyDown	41324	1	Little	31
634.8116666666667	0	n/a	380888	KeyDown	41324	3	Middle	31
635.1350000000000	0	n/a	381082	KeyDown	41324	2	Ring	31
635.5700000000001	0	n/a	381343	KeyDown	41324	4	Index	31
635.9666666666667	0	n/a	381581	KeyDown	41324	4	Index	31
636.3950000000001	0	n/a	381838	KeyDown	41324	1	Little	31
637.1850000000001	0	n/a	382312	KeyDown	41324	3	Middle	31
637.5733333333334	0	n/a	382545	KeyDown	41324	2	Ring	31
637.9500000000000	0	n/a	382771	KeyDown	41324	4	Index	31
638.2966666666667	0	n/a	382979	KeyDown	41324	4	Index	31
638.7433333333333	0	n/a	383247	KeyDown	41324	1	Little	31
639.2233333333334	0	n/a	383535	KeyDown	41324	3	Middle	31
639.5766666666667	0	n/a	383747	KeyDown	41324	2	Ring	31
639.8950000000001	0	n/a	383938	KeyDown	41324	4	Index	31
640.2466666666667	0	n/a	384149	KeyDown	41324	4	Index	31
640.5900000000000	0	n/a	384355	StopPractice	41324	n/a	n/a	31
640.5916666666667	0	n/a	384356	StartRest	XXXXX	n/a	n/a	31
650.6250000000000	0	n/a	390376	StopRest	XXXXX	n/a	n/a	31
650.6266666666667	0	UPPT001	390377	StartPractice	41324	n/a	n/a	32
651.4133333333334	0	n/a	390849	KeyDown	41324	4	Index	32
651.8850000000000	0	n/a	391132	KeyDown	41324	1	Little	32
652.5083333333333	0	n/a	391506	KeyDown	41324	3	Middle	32
652.8633333333333	0	n/a	391719	KeyDown	41324	2	Ring	32
653.2850000000001	0	n/a	391972	KeyDown	41324	4	Index	32
653.6100000000000	0	n/a	392167	KeyDown	41324	4	Index	32
654.2166666666667	0	n/a	392531	KeyDown	41324	1	Little	32
655.3933333333334	0	n/a	393237	KeyDown	41324	3	Middle	32
655.8150000000001	0	n/a	393490	KeyDown	41324	2	Ring	32
656.5316666666668	0	n/a	393920	KeyDown	41324	4	Index	32
656.9050000000001	0	n/a	394144	KeyDown	41324	4	Index	32
657.3916666666668	0	n/a	394436	KeyDown	41324	1	Little	32
658.0766666666667	0	n/a	394847	KeyDown	41324	3	Middle	32
658.5033333333333	0	n/a	395103	KeyDown	41324	2	Ring	32
659.0633333333334	0	n/a	395439	KeyDown	41324	4	Index	32
659.4466666666667	0	n/a	395669	KeyDown	41324	4	Index	32
659.8933333333334	0	n/a	395937	KeyDown	41324	1	Little	32
660.3800000000000	0	n/a	396229	KeyDown	41324	3	Middle	32
660.6650000000001	0	n/a	396400	StopPractice	41324	n/a	n/a	32
660.6666666666667	0	n/a	396401	StartRest	XXXXX	n/a	n/a	32
670.6983333333334	0	n/a	402420	StopRest	XXXXX	n/a	n/a	32
670.7000000000000	0	UPPT001	402421	StartPractice	41324	n/a	n/a	33
671.4533333333334	0	n/a	402873	KeyDown	41324	4	Index	33
671.8466666666667	0	n/a	403109	KeyDown	41324	1	Little	33
672.2133333333334	0	n/a	403329	KeyDown	41324	3	Middle	33
672.5033333333333	0	n/a	403503	KeyDown	41324	2	Ring	33
672.9316666666667	0	n/a	403760	KeyDown	41324	4	Index	33
673.1133333333333	0	n/a	403869	KeyDown	41324	4	Index	33
673.5400000000001	0	n/a	404125	KeyDown	41324	4	Index	33
673.9500000000000	0	n/a	404371	KeyDown	41324	1	Little	33
674.4566666666667	0	n/a	404675	KeyDown	41324	3	Middle	33
674.7650000000001	0	n/a	404860	KeyDown	41324	2	Ring	33
675.1533333333334	0	n/a	405093	KeyDown	41324	4	Index	33
675.4966666666667	0	n/a	405299	KeyDown	41324	4	Index	33
675.9833333333333	0	n/a	405591	KeyDown	41324	1	Little	33
676.6133333333333	0	n/a	405969	KeyDown	41324	3	Middle	33
677.0183333333334	0	n/a	406212	KeyDown	41324	2	Ring	33
677.6366666666667	0	n/a	406583	KeyDown	41324	4	Index	33
678.0216666666668	0	n/a	406814	KeyDown	41324	4	Index	33
678.4316666666667	0	n/a	407060	KeyDown	41324	1	Little	33
679.0366666666667	0	n/a	407423	KeyDown	41324	3	Middle	33
679.4233333333334	0	n/a	407655	KeyDown	41324	2	Ring	33
680.1583333333334	0	n/a	408096	KeyDown	41324	4	Index	33
680.5050000000000	0	n/a	408304	KeyDown	41324	4	Index	33
680.7383333333333	0	n/a	408444	StopPractice	41324	n/a	n/a	33
680.7400000000000	0	n/a	408445	StartRest	XXXXX	n/a	n/a	33
690.7750000000001	0	n/a	414466	StopRest	XXXXX	n/a	n/a	33
690.7766666666668	0	UPPT001	414467	StartPractice	41324	n/a	n/a	34
691.5016666666667	0	n/a	414902	KeyDown	41324	4	Index	34
691.8666666666667	0	n/a	415121	KeyDown	41324	1	Little	34
692.4400000000001	0	n/a	415465	KeyDown	41324	3	Middle	34
692.7583333333333	0	n/a	415656	KeyDown	41324	2	Ring	34
693.0933333333334	0	n/a	415857	KeyDown	41324	4	Index	34
693.3916666666668	0	n/a	416036	KeyDown	41324	4	Index	34
693.7516666666667	0	n/a	416252	KeyDown	41324	1	Little	34
694.6900000000001	0	n/a	416815	KeyDown	41324	3	Middle	34
695.0883333333334	0	n/a	417054	KeyDown	41324	2	Ring	34
695.6850000000001	0	n/a	417412	KeyDown	41324	4	Index	34
696.0633333333334	0	n/a	417639	KeyDown	41324	4	Index	34
696.4766666666667	0	n/a	417887	KeyDown	41324	1	Little	34
697.2150000000000	0	n/a	418330	KeyDown	41324	3	Middle	34
697.5333333333334	0	n/a	418521	KeyDown	41324	2	Ring	34
697.8800000000000	0	n/a	418729	KeyDown	41324	4	Index	34
698.2200000000000	0	n/a	418933	KeyDown	41324	4	Index	34
698.6033333333334	0	n/a	419163	KeyDown	41324	1	Little	34
700.8150000000001	0	n/a	420490	StopPractice	41324	n/a	n/a	34
700.8166666666667	0	n/a	420491	StartRest	XXXXX	n/a	n/a	34
710.8500000000000	0	n/a	426511	StopRest	XXXXX	n/a	n/a	34
710.8516666666667	0	UPPT001	426512	StartPractice	41324	n/a	n/a	35
711.5200000000001	0	n/a	426913	KeyDown	41324	4	Index	35
712.0300000000001	0	n/a	427219	KeyDown	41324	1	Little	35
712.5650000000001	0	n/a	427540	KeyDown	41324	3	Middle	35
712.8400000000000	0	n/a	427705	KeyDown	41324	2	Ring	35
713.2566666666667	0	n/a	427955	KeyDown	41324	4	Index	35
713.5666666666667	0	n/a	428141	KeyDown	41324	4	Index	35
713.9216666666667	0	n/a	428354	KeyDown	41324	1	Little	35
714.5650000000001	0	n/a	428740	KeyDown	41324	3	Middle	35
714.8733333333333	0	n/a	428925	KeyDown	41324	2	Ring	35
715.2533333333333	0	n/a	429153	KeyDown	41324	4	Index	35
715.5983333333334	0	n/a	429360	KeyDown	41324	4	Index	35
716.0050000000000	0	n/a	429604	KeyDown	41324	1	Little	35
716.6083333333333	0	n/a	429966	KeyDown	41324	3	Middle	35
716.9000000000001	0	n/a	430141	KeyDown	41324	2	Ring	35
717.3550000000000	0	n/a	430414	KeyDown	41324	4	Index	35
717.6966666666667	0	n/a	430619	KeyDown	41324	4	Index	35
718.0666666666667	0	n/a	430841	KeyDown	41324	1	Little	35
718.6250000000000	0	n/a	431176	KeyDown	41324	3	Middle	35
719.1133333333333	0	n/a	431469	KeyDown	41324	2	Ring	35
719.4900000000000	0	n/a	431695	KeyDown	41324	4	Index	35
719.8450000000000	0	n/a	431908	KeyDown	41324	4	Index	35
720.2516666666667	0	n/a	432152	KeyDown	41324	1	Little	35
720.5216666666668	0	n/a	432314	KeyDown	41324	2	Ring	35
720.5616666666667	0	n/a	432338	KeyDown	41324	3	Middle	35
720.8900000000001	0	n/a	432535	StopPractice	41324	n/a	n/a	35
720.8916666666668	0	n/a	432536	StartRest	XXXXX	n/a	n/a	35
730.9233333333334	0	n/a	438555	StopRest	XXXXX	n/a	n/a	35
730.9250000000001	0	UPPT001	438556	StartPractice	41324	n/a	n/a	36
731.6816666666667	0	n/a	439010	KeyDown	41324	4	Index	36
732.0750000000000	0	n/a	439246	KeyDown	41324	1	Little	36
732.5833333333334	0	n/a	439551	KeyDown	41324	3	Middle	36
732.8783333333333	0	n/a	439728	KeyDown	41324	2	Ring	36
733.4433333333334	0	n/a	440067	KeyDown	41324	3	Middle	36
734.2866666666667	0	n/a	440573	KeyDown	41324	4	Index	36
734.8950000000001	0	n/a	440938	KeyDown	41324	1	Little	36
735.5166666666668	0	n/a	441311	KeyDown	41324	2	Ring	36
735.8833333333333	0	n/a	441531	KeyDown	41324	3	Middle	36
736.3533333333334	0	n/a	441813	KeyDown	41324	4	Index	36
736.7816666666668	0	n/a	442070	KeyDown	41324	4	Index	36
737.1483333333334	0	n/a	442290	KeyDown	41324	1	Little	36
737.6566666666668	0	n/a	442595	KeyDown	41324	3	Middle	36
738.0366666666667	0	n/a	442823	KeyDown	41324	2	Ring	36
738.5066666666667	0	n/a	443105	KeyDown	41324	4	Index	36
739.7750000000001	0	n/a	443866	KeyDown	41324	4	Index	36
740.1500000000001	0	n/a	444091	KeyDown	41324	1	Little	36
740.5683333333334	0	n/a	444342	KeyDown	41324	2	Ring	36
740.9633333333334	0	n/a	444579	StopPractice	41324	n/a	n/a	36
740.9650000000000	0	n/a	444580	StartRest	XXXXX	n/a	n/a	36
751.0000000000000	0	n/a	450601	StopRest	XXXXX	n/a	n/a	36
