onset	duration	channel	onset_sample_idx	event_type	target_sequence	keypress_id	finger_label	trial_number
3.5700000000000	0	UPPT001	2143	StartPractice	41324	n/a	n/a	1
10.2583333333333	0	n/a	6156	KeyDown	41324	4	Index	1
10.8750000000000	0	n/a	6526	KeyDown	41324	1	Little	1
11.6883333333333	0	n/a	7014	KeyDown	41324	3	Middle	1
12.0483333333333	0	n/a	7230	KeyDown	41324	2	Ring	1
13.3883333333333	0	n/a	8034	KeyDown	41324	4	Index	1
13.6166666666667	0	n/a	8171	StopPractice	41324	n/a	n/a	1
13.6183333333333	0	n/a	8172	StartRest	XXXXX	n/a	n/a	1
23.6433333333333	0	n/a	14187	StopRest	XXXXX	n/a	n/a	1
23.6450000000000	0	UPPT001	14188	StartPractice	41324	n/a	n/a	2
25.0066666666667	0	n/a	15005	KeyDown	41324	4	Index	2
25.4766666666667	0	n/a	15287	KeyDown	41324	1	Little	2
27.4033333333333	0	n/a	16443	KeyDown	41324	3	Middle	2
27.8316666666667	0	n/a	16700	KeyDown	41324	2	Ring	2
28.9733333333333	0	n/a	17385	KeyDown	41324	4	Index	2
31.7083333333333	0	n/a	19026	KeyDown	41324	4	Index	2
33.6916666666667	0	n/a	20216	StopPractice	41324	n/a	n/a	2
33.6933333333333	0	n/a	20217	StartRest	XXXXX	n/a	n/a	2
43.7183333333333	0	n/a	26232	StopRest	XXXXX	n/a	n/a	2
43.7200000000000	0	UPPT001	26233	StartPractice	41324	n/a	n/a	3
45.1700000000000	0	n/a	27103	KeyDown	41324	4	Index	3
45.5716666666667	0	n/a	27344	KeyDown	41324	1	Little	3
46.0350000000000	0	n/a	27622	KeyDown	41324	3	Middle	3
46.3833333333333	0	n/a	27831	KeyDown	41324	2	Ring	3
46.7916666666667	0	n/a	28076	KeyDown	41324	4	Index	3
53.7666666666667	0	n/a	32261	StopPractice	41324	n/a	n/a	3
53.7683333333333	0	n/a	32262	StartRest	XXXXX	n/a	n/a	3
63.7916666666667	0	n/a	38276	StopRest	XXXXX	n/a	n/a	3
63.7933333333333	0	UPPT001	38277	StartPractice	41324	n/a	n/a	4
64.2016666666667	0	n/a	38522	KeyDown	41324	4	Index	4
64.5716666666667	0	n/a	38744	KeyDown	41324	1	Little	4
64.9850000000000	0	n/a	38992	KeyDown	41324	3	Middle	4
65.4066666666667	0	n/a	39245	KeyDown	41324	2	Ring	4
65.7816666666667	0	n/a	39470	KeyDown	41324	4	Index	4
73.8400000000000	0	n/a	44305	StopPractice	41324	n/a	n/a	4
73.8416666666667	0	n/a	44306	StartRest	XXXXX	n/a	n/a	4
83.8683333333333	0	n/a	50322	StopRest	XXXXX	n/a	n/a	4
83.8700000000000	0	UPPT001	50323	StartPractice	41324	n/a	n/a	5
84.1833333333333	0	n/a	50511	KeyDown	41324	4	Index	5
84.4483333333333	0	n/a	50670	KeyDown	41324	1	Little	5
84.7416666666667	0	n/a	50846	KeyDown	41324	3	Middle	5
85.0266666666667	0	n/a	51017	KeyDown	41324	2	Ring	5
85.2733333333333	0	n/a	51165	KeyDown	41324	4	Index	5
92.5633333333333	0	n/a	55539	KeyDown	41324	4	Index	5
92.7716666666667	0	n/a	55664	KeyDown	41324	1	Little	5
93.1800000000000	0	n/a	55909	KeyDown	41324	3	Middle	5
93.3666666666667	0	n/a	56021	KeyDown	41324	2	Ring	5
93.9166666666667	0	n/a	56351	StopPractice	41324	n/a	n/a	5
93.9183333333333	0	n/a	56352	StartRest	XXXXX	n/a	n/a	5
103.9416666666667	0	n/a	62366	StopRest	XXXXX	n/a	n/a	5
103.9433333333333	0	UPPT001	62367	StartPractice	41324	n/a	n/a	6
104.3816666666667	0	n/a	62630	KeyDown	41324	4	Index	6
104.7000000000000	0	n/a	62821	KeyDown	41324	1	Little	6
105.0466666666667	0	n/a	63029	KeyDown	41324	3	Middle	6
105.3616666666667	0	n/a	63218	KeyDown	41324	2	Ring	6
105.6716666666667	0	n/a	63404	KeyDown	41324	4	Index	6
105.9416666666667	0	n/a	63566	KeyDown	41324	4	Index	6
106.2366666666667	0	n/a	63743	KeyDown	41324	1	Little	6
106.5450000000000	0	n/a	63928	KeyDown	41324	3	Middle	6
106.8316666666667	0	n/a	64100	KeyDown	41324	2	Ring	6
107.1933333333333	0	n/a	64317	KeyDown	41324	4	Index	6
107.4683333333333	0	n/a	64482	KeyDown	41324	4	Index	6
107.7350000000000	0	n/a	64642	KeyDown	41324	1	Little	6
108.0066666666667	0	n/a	64805	KeyDown	41324	3	Middle	6
108.3250000000000	0	n/a	64996	KeyDown	41324	2	Ring	6
108.7800000000000	0	n/a	65269	KeyDown	41324	4	Index	6
109.0616666666667	0	n/a	65438	KeyDown	41324	4	Index	6
109.3266666666667	0	n/a	65597	KeyDown	41324	1	Little	6
109.6500000000000	0	n/a	65791	KeyDown	41324	3	Middle	6
109.9450000000000	0	n/a	65968	KeyDown	41324	2	Ring	6
110.2583333333333	0	n/a	66156	KeyDown	41324	4	Index	6
110.4916666666667	0	n/a	66296	KeyDown	41324	4	Index	6
110.7333333333333	0	n/a	66441	KeyDown	41324	1	Little	6
111.0666666666667	0	n/a	66641	KeyDown	41324	3	Middle	6
111.3366666666667	0	n/a	66803	KeyDown	41324	2	Ring	6
111.6600000000000	0	n/a	66997	KeyDown	41324	4	Index	6
111.8566666666667	0	n/a	67115	KeyDown	41324	4	Index	6
112.1083333333333	0	n/a	67266	KeyDown	41324	1	Little	6
112.3600000000000	0	n/a	67417	KeyDown	41324	3	Middle	6
112.5916666666667	0	n/a	67556	KeyDown	41324	2	Ring	6
113.0216666666667	0	n/a	67814	KeyDown	41324	4	Index	6
113.2083333333333	0	n/a	67926	KeyDown	41324	4	Index	6
113.4233333333333	0	n/a	68055	KeyDown	41324	1	Little	6
113.7033333333333	0	n/a	68223	KeyDown	41324	3	Middle	6
113.9250000000000	0	n/a	68356	KeyDown	41324	2	Ring	6
113.9900000000000	0	n/a	68395	StopPractice	41324	n/a	n/a	6
113.9916666666667	0	n/a	68396	StartRest	XXXXX	n/a	n/a	6
124.0166666666667	0	n/a	74411	StopRest	XXXXX	n/a	n/a	6
124.0183333333333	0	UPPT001	74412	StartPractice	41324	n/a	n/a	7
124.8500000000000	0	n/a	74911	KeyDown	41324	4	Index	7
125.1316666666667	0	n/a	75080	KeyDown	41324	1	Little	7
125.4083333333333	0	n/a	75246	KeyDown	41324	3	Middle	7
125.6683333333333	0	n/a	75402	KeyDown	41324	2	Ring	7
126.4550000000000	0	n/a	75874	KeyDown	41324	4	Index	7
126.6766666666667	0	n/a	76007	KeyDown	41324	4	Index	7
126.9050000000000	0	n/a	76144	KeyDown	41324	1	Little	7
127.2150000000000	0	n/a	76330	KeyDown	41324	3	Middle	7
127.4333333333333	0	n/a	76461	KeyDown	41324	2	Ring	7
127.7516666666667	0	n/a	76652	KeyDown	41324	4	Index	7
127.9850000000000	0	n/a	76792	KeyDown	41324	4	Index	7
128.2050000000000	0	n/a	76924	KeyDown	41324	1	Little	7
128.4616666666667	0	n/a	77078	KeyDown	41324	3	Middle	7
128.7150000000000	0	n/a	77230	KeyDown	41324	2	Ring	7
129.0316666666667	0	n/a	77420	KeyDown	41324	4	Index	7
129.2700000000000	0	n/a	77563	KeyDown	41324	4	Index	7
129.4900000000000	0	n/a	77695	KeyDown	41324	1	Little	7
129.7466666666667	0	n/a	77849	KeyDown	41324	3	Middle	7
129.9700000000000	0	n/a	77983	KeyDown	41324	2	Ring	7
130.3516666666667	0	n/a	78212	KeyDown	41324	4	Index	7
130.5616666666667	0	n/a	78338	KeyDown	41324	4	Index	7
130.8000000000000	0	n/a	78481	KeyDown	41324	1	Little	7
131.0533333333333	0	n/a	78633	KeyDown	41324	3	Middle	7
131.3250000000000	0	n/a	78796	KeyDown	41324	2	Ring	7
131.8766666666667	0	n/a	79127	KeyDown	41324	4	Index	7
132.1133333333333	0	n/a	79269	KeyDown	41324	4	Index	7
132.3483333333333	0	n/a	79410	KeyDown	41324	1	Little	7
132.7166666666667	0	n/a	79631	KeyDown	41324	3	Middle	7
132.9500000000000	0	n/a	79771	KeyDown	41324	2	Ring	7
133.4383333333333	0	n/a	80064	KeyDown	41324	4	Index	7
133.6450000000000	0	n/a	80188	KeyDown	41324	4	Index	7
133.8850000000000	0	n/a	80332	KeyDown	41324	1	Little	7
134.0650000000000	0	n/a	80440	StopPractice	41324	n/a	n/a	7
134.0666666666667	0	n/a	80441	StartRest	XXXXX	n/a	n/a	7
144.0933333333333	0	n/a	86457	StopRest	XXXXX	n/a	n/a	7
144.0950000000000	0	UPPT001	86458	StartPractice	41324	n/a	n/a	8
144.4433333333334	0	n/a	86667	KeyDown	41324	4	Index	8
144.7200000000000	0	n/a	86833	KeyDown	41324	1	Little	8
144.9933333333333	0	n/a	86997	KeyDown	41324	3	Middle	8
145.2333333333333	0	n/a	87141	KeyDown	41324	2	Ring	8
145.4950000000000	0	n/a	87298	KeyDown	41324	4	Index	8
145.6883333333333	0	n/a	87414	KeyDown	41324	4	Index	8
145.9066666666667	0	n/a	87545	KeyDown	41324	1	Little	8
146.1316666666667	0	n/a	87680	KeyDown	41324	3	Middle	8
146.3766666666667	0	n/a	87827	KeyDown	41324	2	Ring	8
146.6483333333333	0	n/a	87990	KeyDown	41324	4	Index	8
146.8266666666667	0	n/a	88097	KeyDown	41324	4	Index	8
147.0266666666667	0	n/a	88217	KeyDown	41324	1	Little	8
147.3416666666667	0	n/a	88406	KeyDown	41324	3	Middle	8
147.5516666666667	0	n/a	88532	KeyDown	41324	2	Ring	8
147.8183333333334	0	n/a	88692	KeyDown	41324	4	Index	8
147.9733333333333	0	n/a	88785	KeyDown	41324	4	Index	8
148.1666666666667	0	n/a	88901	KeyDown	41324	1	Little	8
148.5083333333334	0	n/a	89106	KeyDown	41324	3	Middle	8
148.7766666666667	0	n/a	89267	KeyDown	41324	2	Ring	8
149.0600000000000	0	n/a	89437	KeyDown	41324	4	Index	8
149.2483333333333	0	n/a	89550	KeyDown	41324	4	Index	8
149.4183333333334	0	n/a	89652	KeyDown	41324	1	Little	8
149.6883333333333	0	n/a	89814	KeyDown	41324	3	Middle	8
149.9283333333333	0	n/a	89958	KeyDown	41324	2	Ring	8
150.1716666666667	0	n/a	90104	KeyDown	41324	4	Index	8
150.3283333333333	0	n/a	90198	KeyDown	41324	4	Index	8
150.5500000000000	0	n/a	90331	KeyDown	41324	1	Little	8
150.9366666666667	0	n/a	90563	KeyDown	41324	3	Middle	8
151.1916666666667	0	n/a	90716	KeyDown	41324	2	Ring	8
151.4683333333333	0	n/a	90882	KeyDown	41324	4	Index	8
151.6316666666667	0	n/a	90980	KeyDown	41324	4	Index	8
151.8216666666667	0	n/a	91094	KeyDown	41324	1	Little	8
152.0383333333334	0	n/a	91224	KeyDown	41324	3	Middle	8
152.2583333333334	0	n/a	91356	KeyDown	41324	2	Ring	8
152.5850000000000	0	n/a	91552	KeyDown	41324	4	Index	8
152.7366666666667	0	n/a	91643	KeyDown	41324	4	Index	8
152.9216666666667	0	n/a	91754	KeyDown	41324	1	Little	8
153.1283333333333	0	n/a	91878	KeyDown	41324	3	Middle	8
153.3566666666667	0	n/a	92015	KeyDown	41324	2	Ring	8
153.6316666666667	0	n/a	92180	KeyDown	41324	4	Index	8
153.7950000000000	0	n/a	92278	KeyDown	41324	4	Index	8
153.9750000000000	0	n/a	92386	KeyDown	41324	1	Little	8
154.1416666666667	0	n/a	92486	StopPractice	41324	n/a	n/a	8
154.1433333333333	0	n/a	92487	StartRest	XXXXX	n/a	n/a	8
164.1666666666667	0	n/a	98501	StopRest	XXXXX	n/a	n/a	8
164.1683333333334	0	UPPT001	98502	StartPractice	41324	n/a	n/a	9
164.7250000000000	0	n/a	98836	KeyDown	41324	4	Index	9
164.9366666666667	0	n/a	98963	KeyDown	41324	1	Little	9
165.1433333333333	0	n/a	99087	KeyDown	41324	3	Middle	9
165.3150000000000	0	n/a	99190	KeyDown	41324	2	Ring	9
165.5150000000000	0	n/a	99310	KeyDown	41324	4	Index	9
165.7100000000000	0	n/a	99427	KeyDown	41324	4	Index	9
165.9333333333333	0	n/a	99561	KeyDown	41324	1	Little	9
166.1916666666667	0	n/a	99716	KeyDown	41324	3	Middle	9
166.4616666666667	0	n/a	99878	KeyDown	41324	2	Ring	9
166.6800000000000	0	n/a	100009	KeyDown	41324	4	Index	9
166.8250000000000	0	n/a	100096	KeyDown	41324	4	Index	9
166.9916666666667	0	n/a	100196	KeyDown	41324	1	Little	9
167.2200000000000	0	n/a	100333	KeyDown	41324	3	Middle	9
167.4133333333334	0	n/a	100449	KeyDown	41324	2	Ring	9
167.6650000000000	0	n/a	100600	KeyDown	41324	4	Index	9
167.8200000000000	0	n/a	100693	KeyDown	41324	4	Index	9
167.9716666666667	0	n/a	100784	KeyDown	41324	1	Little	9
168.2266666666667	0	n/a	100937	KeyDown	41324	3	Middle	9
168.4633333333333	0	n/a	101079	KeyDown	41324	2	Ring	9
168.7100000000000	0	n/a	101227	KeyDown	41324	4	Index	9
168.8683333333333	0	n/a	101322	KeyDown	41324	4	Index	9
169.0533333333333	0	n/a	101433	KeyDown	41324	1	Little	9
169.2900000000000	0	n/a	101575	KeyDown	41324	3	Middle	9
169.5100000000000	0	n/a	101707	KeyDown	41324	2	Ring	9
169.7500000000000	0	n/a	101851	KeyDown	41324	4	Index	9
169.9100000000000	0	n/a	101947	KeyDown	41324	4	Index	9
170.0866666666667	0	n/a	102053	KeyDown	41324	1	Little	9
170.7050000000000	0	n/a	102424	KeyDown	41324	3	Middle	9
170.9700000000000	0	n/a	102583	KeyDown	41324	2	Ring	9
171.2550000000000	0	n/a	102754	KeyDown	41324	4	Index	9
171.4316666666667	0	n/a	102860	KeyDown	41324	4	Index	9
171.6350000000000	0	n/a	102982	KeyDown	41324	1	Little	9
171.8500000000000	0	n/a	103111	KeyDown	41324	3	Middle	9
172.0600000000000	0	n/a	103237	KeyDown	41324	2	Ring	9
172.3083333333333	0	n/a	103386	KeyDown	41324	4	Index	9
172.4650000000000	0	n/a	103480	KeyDown	41324	4	Index	9
172.6500000000000	0	n/a	103591	KeyDown	41324	1	Little	9
172.8816666666667	0	n/a	103730	KeyDown	41324	3	Middle	9
173.1250000000000	0	n/a	103876	KeyDown	41324	2	Ring	9
173.3466666666667	0	n/a	104009	KeyDown	41324	4	Index	9
173.5016666666667	0	n/a	104102	KeyDown	41324	4	Index	9
173.7000000000000	0	n/a	104221	KeyDown	41324	1	Little	9
173.9083333333333	0	n/a	104346	KeyDown	41324	3	Middle	9
174.1266666666667	0	n/a	104477	KeyDown	41324	2	Ring	9
174.2150000000000	0	n/a	104530	StopPractice	41324	n/a	n/a	9
174.2166666666667	0	n/a	104531	StartRest	XXXXX	n/a	n/a	9
184.2416666666667	0	n/a	110546	StopRest	XXXXX	n/a	n/a	9
184.2433333333333	0	UPPT001	110547	StartPractice	41324	n/a	n/a	10
184.7800000000000	0	n/a	110869	KeyDown	41324	4	Index	10
184.9866666666667	0	n/a	110993	KeyDown	41324	1	Little	10
185.2066666666667	0	n/a	111125	KeyDown	41324	3	Middle	10
185.3983333333333	0	n/a	111240	KeyDown	41324	2	Ring	10
185.6183333333333	0	n/a	111372	KeyDown	41324	4	Index	10
185.7866666666667	0	n/a	111473	KeyDown	41324	4	Index	10
185.9483333333334	0	n/a	111570	KeyDown	41324	1	Little	10
186.1600000000000	0	n/a	111697	KeyDown	41324	3	Middle	10
186.3600000000000	0	n/a	111817	KeyDown	41324	2	Ring	10
186.5600000000000	0	n/a	111937	KeyDown	41324	4	Index	10
186.7166666666667	0	n/a	112031	KeyDown	41324	4	Index	10
186.8916666666667	0	n/a	112136	KeyDown	41324	1	Little	10
187.1116666666667	0	n/a	112268	KeyDown	41324	3	Middle	10
187.3216666666667	0	n/a	112394	KeyDown	41324	2	Ring	10
187.5100000000000	0	n/a	112507	KeyDown	41324	4	Index	10
187.6716666666667	0	n/a	112604	KeyDown	41324	4	Index	10
187.8166666666667	0	n/a	112691	KeyDown	41324	1	Little	10
188.2216666666667	0	n/a	112934	KeyDown	41324	3	Middle	10
188.4366666666667	0	n/a	113063	KeyDown	41324	2	Ring	10
188.8316666666667	0	n/a	113300	KeyDown	41324	4	Index	10
189.0000000000000	0	n/a	113401	KeyDown	41324	4	Index	10
189.1716666666667	0	n/a	113504	KeyDown	41324	1	Little	10
189.3900000000000	0	n/a	113635	KeyDown	41324	3	Middle	10
189.6000000000000	0	n/a	113761	KeyDown	41324	2	Ring	10
189.8566666666667	0	n/a	113915	KeyDown	41324	4	Index	10
190.0400000000000	0	n/a	114025	KeyDown	41324	4	Index	10
190.2250000000000	0	n/a	114136	KeyDown	41324	1	Little	10
190.4633333333333	0	n/a	114279	KeyDown	41324	3	Middle	10
190.6766666666667	0	n/a	114407	KeyDown	41324	2	Ring	10
190.9300000000000	0	n/a	114559	KeyDown	41324	4	Index	10
191.0850000000000	0	n/a	114652	KeyDown	41324	4	Index	10
191.2683333333333	0	n/a	114762	KeyDown	41324	1	Little	10
191.5050000000000	0	n/a	114904	KeyDown	41324	3	Middle	10
191.6966666666667	0	n/a	115019	KeyDown	41324	2	Ring	10
191.9116666666667	0	n/a	115148	KeyDown	41324	4	Index	10
192.0650000000000	0	n/a	115240	KeyDown	41324	4	Index	10
192.2033333333333	0	n/a	115323	KeyDown	41324	1	Little	10
192.6183333333333	0	n/a	115572	KeyDown	41324	3	Middle	10
192.8166666666667	0	n/a	115691	KeyDown	41324	2	Ring	10
193.3550000000000	0	n/a	116014	KeyDown	41324	4	Index	10
193.5466666666667	0	n/a	116129	KeyDown	41324	4	Index	10
193.7900000000000	0	n/a	116275	KeyDown	41324	1	Little	10
194.0650000000000	0	n/a	116440	KeyDown	41324	3	Middle	10
194.2900000000000	0	n/a	116575	StopPractice	41324	n/a	n/a	10
194.2916666666667	0	n/a	116576	StartRest	XXXXX	n/a	n/a	10
204.3166666666667	0	n/a	122591	StopRest	XXXXX	n/a	n/a	10
204.3183333333334	0	UPPT001	122592	StartPractice	41324	n/a	n/a	11
204.8816666666667	0	n/a	122930	KeyDown	41324	4	Index	11
205.1016666666667	0	n/a	123062	KeyDown	41324	1	Little	11
205.3600000000000	0	n/a	123217	KeyDown	41324	3	Middle	11
205.5783333333333	0	n/a	123348	KeyDown	41324	2	Ring	11
205.7866666666667	0	n/a	123473	KeyDown	41324	4	Index	11
205.9533333333333	0	n/a	123573	KeyDown	41324	4	Index	11
206.1133333333333	0	n/a	123669	KeyDown	41324	1	Little	11
206.3416666666667	0	n/a	123806	KeyDown	41324	3	Middle	11
206.5600000000000	0	n/a	123937	KeyDown	41324	2	Ring	11
206.8000000000000	0	n/a	124081	KeyDown	41324	4	Index	11
206.9466666666667	0	n/a	124169	KeyDown	41324	4	Index	11
207.1350000000000	0	n/a	124282	KeyDown	41324	1	Little	11
207.3716666666667	0	n/a	124424	KeyDown	41324	3	Middle	11
207.5716666666667	0	n/a	124544	KeyDown	41324	2	Ring	11
207.7666666666667	0	n/a	124661	KeyDown	41324	4	Index	11
207.9316666666667	0	n/a	124760	KeyDown	41324	4	Index	11
208.1100000000000	0	n/a	124867	KeyDown	41324	1	Little	11
208.3150000000000	0	n/a	124990	KeyDown	41324	3	Middle	11
208.5166666666667	0	n/a	125111	KeyDown	41324	2	Ring	11
208.7433333333333	0	n/a	125247	KeyDown	41324	4	Index	11
208.9066666666667	0	n/a	125345	KeyDown	41324	4	Index	11
209.0666666666667	0	n/a	125441	KeyDown	41324	1	Little	11
209.2983333333333	0	n/a	125580	KeyDown	41324	3	Middle	11
209.4983333333333	0	n/a	125700	KeyDown	41324	2	Ring	11
209.7233333333334	0	n/a	125835	KeyDown	41324	4	Index	11
209.8916666666667	0	n/a	125936	KeyDown	41324	4	Index	11
210.0716666666667	0	n/a	126044	KeyDown	41324	1	Little	11
210.3116666666667	0	n/a	126188	KeyDown	41324	3	Middle	11
210.5066666666667	0	n/a	126305	KeyDown	41324	2	Ring	11
210.7266666666667	0	n/a	126437	KeyDown	41324	4	Index	11
210.8900000000000	0	n/a	126535	KeyDown	41324	4	Index	11
211.0700000000000	0	n/a	126643	KeyDown	41324	1	Little	11
211.3633333333333	0	n/a	126819	KeyDown	41324	3	Middle	11
211.6616666666667	0	n/a	126998	KeyDown	41324	2	Ring	11
211.8650000000000	0	n/a	127120	KeyDown	41324	4	Index	11
212.0216666666667	0	n/a	127214	KeyDown	41324	4	Index	11
212.1900000000000	0	n/a	127315	KeyDown	41324	1	Little	11
212.4216666666667	0	n/a	127454	KeyDown	41324	3	Middle	11
212.6283333333334	0	n/a	127578	KeyDown	41324	2	Ring	11
212.8250000000000	0	n/a	127696	KeyDown	41324	4	Index	11
212.9800000000000	0	n/a	127789	KeyDown	41324	4	Index	11
213.1266666666667	0	n/a	127877	KeyDown	41324	1	Little	11
213.3566666666667	0	n/a	128015	KeyDown	41324	3	Middle	11
213.5150000000000	0	n/a	128110	KeyDown	41324	2	Ring	11
213.7316666666667	0	n/a	128240	KeyDown	41324	4	Index	11
213.8566666666667	0	n/a	128315	KeyDown	41324	4	Index	11
213.9800000000000	0	n/a	128389	KeyDown	41324	1	Little	11
214.2050000000000	0	n/a	128524	KeyDown	41324	3	Middle	11
214.3650000000000	0	n/a	128620	StopPractice	41324	n/a	n/a	11
214.3666666666667	0	n/a	128621	StartRest	XXXXX	n/a	n/a	11
224.3916666666667	0	n/a	134636	StopRest	XXXXX	n/a	n/a	11
224.3933333333333	0	UPPT001	134637	StartPractice	41324	n/a	n/a	12
224.9500000000000	0	n/a	134971	KeyDown	41324	4	Index	12
225.1050000000000	0	n/a	135064	KeyDown	41324	1	Little	12
225.3200000000000	0	n/a	135193	KeyDown	41324	3	Middle	12
225.4700000000000	0	n/a	135283	KeyDown	41324	2	Ring	12
225.6766666666667	0	n/a	135407	KeyDown	41324	4	Index	12
225.8316666666667	0	n/a	135500	KeyDown	41324	4	Index	12
225.9616666666667	0	n/a	135578	KeyDown	41324	1	Little	12
226.1466666666667	0	n/a	135689	KeyDown	41324	3	Middle	12
226.3250000000000	0	n/a	135796	KeyDown	41324	2	Ring	12
226.5233333333333	0	n/a	135915	KeyDown	41324	4	Index	12
226.6700000000000	0	n/a	136003	KeyDown	41324	4	Index	12
226.8500000000000	0	n/a	136111	KeyDown	41324	1	Little	12
227.0266666666667	0	n/a	136217	KeyDown	41324	3	Middle	12
227.2100000000000	0	n/a	136327	KeyDown	41324	2	Ring	12
227.4200000000000	0	n/a	136453	KeyDown	41324	4	Index	12
227.5683333333334	0	n/a	136542	KeyDown	41324	4	Index	12
227.7333333333333	0	n/a	136641	KeyDown	41324	1	Little	12
227.9316666666667	0	n/a	136760	KeyDown	41324	3	Middle	12
228.0900000000000	0	n/a	136855	KeyDown	41324	2	Ring	12
228.3100000000000	0	n/a	136987	KeyDown	41324	4	Index	12
228.4633333333333	0	n/a	137079	KeyDown	41324	4	Index	12
228.6116666666667	0	n/a	137168	KeyDown	41324	1	Little	12
228.8200000000000	0	n/a	137293	KeyDown	41324	3	Middle	12
228.9816666666667	0	n/a	137390	KeyDown	41324	2	Ring	12
229.2116666666667	0	n/a	137528	KeyDown	41324	4	Index	12
229.3750000000000	0	n/a	137626	KeyDown	41324	4	Index	12
229.5300000000000	0	n/a	137719	KeyDown	41324	1	Little	12
229.7383333333333	0	n/a	137844	KeyDown	41324	3	Middle	12
229.8850000000000	0	n/a	137932	KeyDown	41324	2	Ring	12
230.1000000000000	0	n/a	138061	KeyDown	41324	4	Index	12
230.2300000000000	0	n/a	138139	KeyDown	41324	4	Index	12
230.3733333333333	0	n/a	138225	KeyDown	41324	1	Little	12
230.6316666666667	0	n/a	138380	KeyDown	41324	3	Middle	12
230.8066666666667	0	n/a	138485	KeyDown	41324	2	Ring	12
231.0166666666667	0	n/a	138611	KeyDown	41324	4	Index	12
231.1866666666667	0	n/a	138713	KeyDown	41324	4	Index	12
231.3400000000000	0	n/a	138805	KeyDown	41324	1	Little	12
231.5600000000000	0	n/a	138937	KeyDown	41324	3	Middle	12
231.7000000000000	0	n/a	139021	KeyDown	41324	2	Ring	12
231.9116666666667	0	n/a	139148	KeyDown	41324	4	Index	12
232.0966666666667	0	n/a	139259	KeyDown	41324	4	Index	12
232.2066666666667	0	n/a	139325	KeyDown	41324	1	Little	12
232.4066666666667	0	n/a	139445	KeyDown	41324	3	Middle	12
232.5500000000000	0	n/a	139531	KeyDown	41324	2	Ring	12
232.7766666666667	0	n/a	139667	KeyDown	41324	4	Index	12
232.9200000000000	0	n/a	139753	KeyDown	41324	4	Index	12
233.0416666666667	0	n/a	139826	KeyDown	41324	1	Little	12
233.2383333333333	0	n/a	139944	KeyDown	41324	3	Middle	12
233.3816666666667	0	n/a	140030	KeyDown	41324	2	Ring	12
233.6050000000000	0	n/a	140164	KeyDown	41324	4	Index	12
233.7400000000000	0	n/a	140245	KeyDown	41324	4	Index	12
233.8616666666667	0	n/a	140318	KeyDown	41324	1	Little	12
234.0666666666667	0	n/a	140441	KeyDown	41324	3	Middle	12
234.1950000000000	0	n/a	140518	KeyDown	41324	2	Ring	12
234.4400000000000	0	n/a	140665	StopPractice	41324	n/a	n/a	12
234.4416666666667	0	n/a	140666	StartRest	XXXXX	n/a	n/a	12
244.4833333333333	0	n/a	146691	StopRest	XXXXX	n/a	n/a	12
244.4850000000000	0	UPPT001	146692	StartPractice	41324	n/a	n/a	13
244.9766666666667	0	n/a	146987	KeyDown	41324	4	Index	13
245.1966666666667	0	n/a	147119	KeyDown	41324	1	Little	13
245.4500000000000	0	n/a	147271	KeyDown	41324	3	Middle	13
245.6050000000000	0	n/a	147364	KeyDown	41324	2	Ring	13
245.8383333333333	0	n/a	147504	KeyDown	41324	4	Index	13
245.9783333333334	0	n/a	147588	KeyDown	41324	4	Index	13
246.0833333333333	0	n/a	147651	KeyDown	41324	1	Little	13
246.3083333333333	0	n/a	147786	KeyDown	41324	3	Middle	13
246.4500000000000	0	n/a	147871	KeyDown	41324	2	Ring	13
246.6566666666667	0	n/a	147995	KeyDown	41324	4	Index	13
246.8100000000000	0	n/a	148087	KeyDown	41324	4	Index	13
246.9183333333334	0	n/a	148152	KeyDown	41324	1	Little	13
247.1233333333334	0	n/a	148275	KeyDown	41324	3	Middle	13
247.2650000000000	0	n/a	148360	KeyDown	41324	2	Ring	13
247.5016666666667	0	n/a	148502	KeyDown	41324	4	Index	13
247.6466666666667	0	n/a	148589	KeyDown	41324	4	Index	13
247.7850000000000	0	n/a	148672	KeyDown	41324	1	Little	13
248.0066666666667	0	n/a	148805	KeyDown	41324	3	Middle	13
248.1500000000000	0	n/a	148891	KeyDown	41324	2	Ring	13
248.3683333333333	0	n/a	149022	KeyDown	41324	4	Index	13
248.5116666666667	0	n/a	149108	KeyDown	41324	4	Index	13
248.6683333333334	0	n/a	149202	KeyDown	41324	1	Little	13
248.9733333333334	0	n/a	149385	KeyDown	41324	3	Middle	13
249.1666666666667	0	n/a	149501	KeyDown	41324	2	Ring	13
249.3783333333334	0	n/a	149628	KeyDown	41324	4	Index	13
249.5316666666667	0	n/a	149720	KeyDown	41324	4	Index	13
249.6766666666667	0	n/a	149807	KeyDown	41324	1	Little	13
249.9516666666667	0	n/a	149972	KeyDown	41324	3	Middle	13
250.1133333333333	0	n/a	150069	KeyDown	41324	2	Ring	13
250.3133333333334	0	n/a	150189	KeyDown	41324	4	Index	13
250.4733333333334	0	n/a	150285	KeyDown	41324	4	Index	13
250.5983333333334	0	n/a	150360	KeyDown	41324	1	Little	13
250.8516666666667	0	n/a	150512	KeyDown	41324	3	Middle	13
250.9783333333334	0	n/a	150588	KeyDown	41324	2	Ring	13
251.2333333333333	0	n/a	150741	KeyDown	41324	4	Index	13
251.4033333333333	0	n/a	150843	KeyDown	41324	4	Index	13
251.5050000000000	0	n/a	150904	KeyDown	41324	1	Little	13
251.7716666666667	0	n/a	151064	KeyDown	41324	3	Middle	13
251.9666666666667	0	n/a	151181	KeyDown	41324	2	Ring	13
252.1800000000000	0	n/a	151309	KeyDown	41324	4	Index	13
252.3416666666667	0	n/a	151406	KeyDown	41324	4	Index	13
252.4766666666667	0	n/a	151487	KeyDown	41324	1	Little	13
252.6883333333334	0	n/a	151614	KeyDown	41324	3	Middle	13
252.8350000000000	0	n/a	151702	KeyDown	41324	2	Ring	13
253.0800000000000	0	n/a	151849	KeyDown	41324	4	Index	13
253.2350000000000	0	n/a	151942	KeyDown	41324	4	Index	13
253.3066666666667	0	n/a	151985	KeyDown	41324	1	Little	13
253.5316666666667	0	n/a	152120	KeyDown	41324	3	Middle	13
253.6650000000000	0	n/a	152200	KeyDown	41324	2	Ring	13
253.9083333333334	0	n/a	152346	KeyDown	41324	4	Index	13
254.0433333333334	0	n/a	152427	KeyDown	41324	4	Index	13
254.1416666666667	0	n/a	152486	KeyDown	41324	1	Little	13
254.3533333333334	0	n/a	152613	KeyDown	41324	3	Middle	13
254.4833333333333	0	n/a	152691	KeyDown	41324	2	Ring	13
254.5316666666667	0	n/a	152720	StopPractice	41324	n/a	n/a	13
254.5333333333334	0	n/a	152721	StartRest	XXXXX	n/a	n/a	13
264.5750000000000	0	n/a	158746	StopRest	XXXXX	n/a	n/a	13
264.5766666666667	0	UPPT001	158747	StartPractice	41324	n/a	n/a	14
265.1600000000000	0	n/a	159097	KeyDown	41324	4	Index	14
265.2850000000000	0	n/a	159172	KeyDown	41324	1	Little	14
265.5116666666667	0	n/a	159308	KeyDown	41324	3	Middle	14
265.7383333333333	0	n/a	159444	KeyDown	41324	2	Ring	14
266.0316666666667	0	n/a	159620	KeyDown	41324	4	Index	14
266.2100000000000	0	n/a	159727	KeyDown	41324	4	Index	14
266.3250000000000	0	n/a	159796	KeyDown	41324	1	Little	14
266.5333333333334	0	n/a	159921	KeyDown	41324	3	Middle	14
266.7416666666667	0	n/a	160046	KeyDown	41324	2	Ring	14
266.9500000000000	0	n/a	160171	KeyDown	41324	4	Index	14
267.1200000000000	0	n/a	160273	KeyDown	41324	4	Index	14
267.2350000000000	0	n/a	160342	KeyDown	41324	1	Little	14
267.4300000000000	0	n/a	160459	KeyDown	41324	3	Middle	14
267.7116666666667	0	n/a	160628	KeyDown	41324	2	Ring	14
268.0016666666667	0	n/a	160802	KeyDown	41324	4	Index	14
268.1700000000000	0	n/a	160903	KeyDown	41324	4	Index	14
268.4000000000000	0	n/a	161041	KeyDown	41324	1	Little	14
268.6950000000000	0	n/a	161218	KeyDown	41324	3	Middle	14
268.9100000000000	0	n/a	161347	KeyDown	41324	2	Ring	14
269.0900000000000	0	n/a	161455	KeyDown	41324	4	Index	14
269.2450000000000	0	n/a	161548	KeyDown	41324	4	Index	14
269.3733333333333	0	n/a	161625	KeyDown	41324	1	Little	14
269.5533333333333	0	n/a	161733	KeyDown	41324	3	Middle	14
269.8050000000000	0	n/a	161884	KeyDown	41324	2	Ring	14
269.9933333333333	0	n/a	161997	KeyDown	41324	4	Index	14
270.1633333333334	0	n/a	162099	KeyDown	41324	4	Index	14
270.2816666666667	0	n/a	162170	KeyDown	41324	1	Little	14
270.5100000000000	0	n/a	162307	KeyDown	41324	3	Middle	14
270.7350000000000	0	n/a	162442	KeyDown	41324	2	Ring	14
270.9150000000000	0	n/a	162550	KeyDown	41324	4	Index	14
271.0800000000000	0	n/a	162649	KeyDown	41324	4	Index	14
271.2066666666667	0	n/a	162725	KeyDown	41324	1	Little	14
271.3966666666667	0	n/a	162839	KeyDown	41324	3	Middle	14
271.6216666666667	0	n/a	162974	KeyDown	41324	2	Ring	14
271.7983333333333	0	n/a	163080	KeyDown	41324	4	Index	14
271.9600000000000	0	n/a	163177	KeyDown	41324	4	Index	14
272.0666666666667	0	n/a	163241	KeyDown	41324	1	Little	14
272.2700000000000	0	n/a	163363	KeyDown	41324	3	Middle	14
272.4900000000000	0	n/a	163495	KeyDown	41324	2	Ring	14
272.6766666666667	0	n/a	163607	KeyDown	41324	4	Index	14
272.8366666666667	0	n/a	163703	KeyDown	41324	4	Index	14
272.9433333333333	0	n/a	163767	KeyDown	41324	1	Little	14
273.1500000000000	0	n/a	163891	KeyDown	41324	3	Middle	14
273.3033333333333	0	n/a	163983	KeyDown	41324	2	Ring	14
273.5333333333334	0	n/a	164121	KeyDown	41324	4	Index	14
273.6866666666667	0	n/a	164213	KeyDown	41324	4	Index	14
273.7883333333334	0	n/a	164274	KeyDown	41324	1	Little	14
273.9433333333333	0	n/a	164367	KeyDown	41324	3	Middle	14
274.1000000000000	0	n/a	164461	KeyDown	41324	2	Ring	14
274.3333333333334	0	n/a	164601	KeyDown	41324	4	Index	14
274.4800000000000	0	n/a	164689	KeyDown	41324	4	Index	14
274.5783333333334	0	n/a	164748	KeyDown	41324	1	Little	14
274.6233333333333	0	n/a	164775	StopPractice	41324	n/a	n/a	14
274.6250000000000	0	n/a	164776	StartRest	XXXXX	n/a	n/a	14
284.6666666666667	0	n/a	170801	StopRest	XXXXX	n/a	n/a	14
284.6683333333334	0	UPPT001	170802	StartPractice	41324	n/a	n/a	15
285.1416666666667	0	n/a	171086	KeyDown	41324	4	Index	15
285.2683333333334	0	n/a	171162	KeyDown	41324	1	Little	15
285.4800000000000	0	n/a	171289	KeyDown	41324	3	Middle	15
285.5816666666667	0	n/a	171350	KeyDown	41324	2	Ring	15
285.8933333333334	0	n/a	171537	KeyDown	41324	4	Index	15
286.0416666666667	0	n/a	171626	KeyDown	41324	4	Index	15
286.1433333333334	0	n/a	171687	KeyDown	41324	1	Little	15
286.3283333333334	0	n/a	171798	KeyDown	41324	3	Middle	15
286.5000000000000	0	n/a	171901	KeyDown	41324	2	Ring	15
286.7433333333333	0	n/a	172047	KeyDown	41324	4	Index	15
286.8950000000000	0	n/a	172138	KeyDown	41324	4	Index	15
286.9916666666667	0	n/a	172196	KeyDown	41324	1	Little	15
287.2250000000000	0	n/a	172336	KeyDown	41324	3	Middle	15
287.3516666666667	0	n/a	172412	KeyDown	41324	2	Ring	15
287.5916666666667	0	n/a	172556	KeyDown	41324	4	Index	15
287.7450000000000	0	n/a	172648	KeyDown	41324	4	Index	15
287.8716666666667	0	n/a	172724	KeyDown	41324	1	Little	15
288.0850000000000	0	n/a	172852	KeyDown	41324	3	Middle	15
288.2366666666667	0	n/a	172943	KeyDown	41324	2	Ring	15
288.4650000000000	0	n/a	173080	KeyDown	41324	4	Index	15
288.6283333333333	0	n/a	173178	KeyDown	41324	4	Index	15
288.7700000000000	0	n/a	173263	KeyDown	41324	1	Little	15
289.2633333333334	0	n/a	173559	KeyDown	41324	3	Middle	15
289.4566666666667	0	n/a	173675	KeyDown	41324	2	Ring	15
289.7116666666667	0	n/a	173828	KeyDown	41324	4	Index	15
289.8816666666667	0	n/a	173930	KeyDown	41324	4	Index	15
289.9983333333333	0	n/a	174000	KeyDown	41324	1	Little	15
290.2750000000000	0	n/a	174166	KeyDown	41324	3	Middle	15
290.5316666666667	0	n/a	174320	KeyDown	41324	2	Ring	15
290.6800000000000	0	n/a	174409	KeyDown	41324	4	Index	15
290.8683333333333	0	n/a	174522	KeyDown	41324	4	Index	15
290.9800000000000	0	n/a	174589	KeyDown	41324	1	Little	15
291.1916666666667	0	n/a	174716	KeyDown	41324	4	Index	15
292.2166666666667	0	n/a	175331	KeyDown	41324	3	Middle	15
292.4283333333333	0	n/a	175458	KeyDown	41324	2	Ring	15
292.6483333333334	0	n/a	175590	KeyDown	41324	4	Index	15
292.8350000000000	0	n/a	175702	KeyDown	41324	4	Index	15
292.9600000000000	0	n/a	175777	KeyDown	41324	1	Little	15
293.2050000000000	0	n/a	175924	KeyDown	41324	3	Middle	15
293.4233333333333	0	n/a	176055	KeyDown	41324	2	Ring	15
293.6250000000000	0	n/a	176176	KeyDown	41324	4	Index	15
293.8150000000000	0	n/a	176290	KeyDown	41324	4	Index	15
293.9750000000000	0	n/a	176386	KeyDown	41324	1	Little	15
294.2266666666667	0	n/a	176537	KeyDown	41324	3	Middle	15
294.4716666666667	0	n/a	176684	KeyDown	41324	2	Ring	15
294.7150000000000	0	n/a	176830	StopPractice	41324	n/a	n/a	15
294.7166666666667	0	n/a	176831	StartRest	XXXXX	n/a	n/a	15
304.7400000000000	0	n/a	182845	StopRest	XXXXX	n/a	n/a	15
304.7416666666667	0	UPPT001	182846	StartPractice	41324	n/a	n/a	16
305.0733333333334	0	n/a	183045	KeyDown	41324	4	Index	16
305.2283333333334	0	n/a	183138	KeyDown	41324	1	Little	16
305.4666666666667	0	n/a	183281	KeyDown	41324	3	Middle	16
305.5600000000000	0	n/a	183337	KeyDown	41324	2	Ring	16
305.8300000000000	0	n/a	183499	KeyDown	41324	4	Index	16
305.9733333333334	0	n/a	183585	KeyDown	41324	4	Index	16
306.1033333333334	0	n/a	183663	KeyDown	41324	1	Little	16
306.3050000000000	0	n/a	183784	KeyDown	41324	3	Middle	16
306.4650000000000	0	n/a	183880	KeyDown	41324	2	Ring	16
306.6900000000000	0	n/a	184015	KeyDown	41324	4	Index	16
306.8550000000000	0	n/a	184114	KeyDown	41324	4	Index	16
306.9850000000000	0	n/a	184192	KeyDown	41324	1	Little	16
307.2550000000000	0	n/a	184354	KeyDown	41324	3	Middle	16
307.4466666666667	0	n/a	184469	KeyDown	41324	2	Ring	16
307.6500000000000	0	n/a	184591	KeyDown	41324	4	Index	16
307.8033333333333	0	n/a	184683	KeyDown	41324	4	Index	16
307.9483333333334	0	n/a	184770	KeyDown	41324	1	Little	16
308.1416666666667	0	n/a	184886	KeyDown	41324	3	Middle	16
308.3633333333333	0	n/a	185019	KeyDown	41324	2	Ring	16
308.5666666666667	0	n/a	185141	KeyDown	41324	4	Index	16
308.7233333333334	0	n/a	185235	KeyDown	41324	4	Index	16
308.8366666666667	0	n/a	185303	KeyDown	41324	1	Little	16
309.0300000000000	0	n/a	185419	KeyDown	41324	3	Middle	16
309.2500000000000	0	n/a	185551	KeyDown	41324	2	Ring	16
309.4583333333334	0	n/a	185676	KeyDown	41324	4	Index	16
309.6250000000000	0	n/a	185776	KeyDown	41324	4	Index	16
309.7433333333333	0	n/a	185847	KeyDown	41324	1	Little	16
310.1633333333334	0	n/a	186099	KeyDown	41324	3	Middle	16
310.3550000000000	0	n/a	186214	KeyDown	41324	2	Ring	16
310.5750000000000	0	n/a	186346	KeyDown	41324	4	Index	16
310.7333333333333	0	n/a	186441	KeyDown	41324	4	Index	16
310.8733333333333	0	n/a	186525	KeyDown	41324	1	Little	16
311.0583333333333	0	n/a	186636	KeyDown	41324	3	Middle	16
311.3433333333334	0	n/a	186807	KeyDown	41324	2	Ring	16
311.6633333333334	0	n/a	186999	KeyDown	41324	4	Index	16
311.8533333333334	0	n/a	187113	KeyDown	41324	4	Index	16
312.2850000000000	0	n/a	187372	KeyDown	41324	1	Little	16
312.7266666666667	0	n/a	187637	KeyDown	41324	3	Middle	16
312.9483333333334	0	n/a	187770	KeyDown	41324	2	Ring	16
313.1783333333333	0	n/a	187908	KeyDown	41324	4	Index	16
313.3383333333334	0	n/a	188004	KeyDown	41324	4	Index	16
313.4583333333334	0	n/a	188076	KeyDown	41324	1	Little	16
313.6800000000000	0	n/a	188209	KeyDown	41324	3	Middle	16
313.8366666666667	0	n/a	188303	KeyDown	41324	2	Ring	16
314.1183333333333	0	n/a	188472	KeyDown	41324	4	Index	16
314.2883333333334	0	n/a	188574	KeyDown	41324	4	Index	16
314.4300000000000	0	n/a	188659	KeyDown	41324	1	Little	16
314.6283333333333	0	n/a	188778	KeyDown	41324	2	Ring	16
314.6833333333333	0	n/a	188811	KeyDown	41324	3	Middle	16
314.7883333333334	0	n/a	188874	StopPractice	41324	n/a	n/a	16
314.7900000000000	0	n/a	188875	StartRest	XXXXX	n/a	n/a	16
324.8333333333334	0	n/a	194901	StopRest	XXXXX	n/a	n/a	16
324.8350000000000	0	UPPT001	194902	StartPractice	41324	n/a	n/a	17
325.4566666666667	0	n/a	195275	KeyDown	41324	4	Index	17
325.8216666666667	0	n/a	195494	KeyDown	41324	1	Little	17
326.2650000000000	0	n/a	195760	KeyDown	41324	3	Middle	17
326.5283333333334	0	n/a	195918	KeyDown	41324	2	Ring	17
326.7483333333333	0	n/a	196050	KeyDown	41324	4	Index	17
326.9183333333334	0	n/a	196152	KeyDown	41324	4	Index	17
327.0683333333333	0	n/a	196242	KeyDown	41324	1	Little	17
327.2583333333334	0	n/a	196356	KeyDown	41324	3	Middle	17
327.4933333333333	0	n/a	196497	KeyDown	41324	2	Ring	17
327.7466666666667	0	n/a	196649	KeyDown	41324	4	Index	17
327.9266666666667	0	n/a	196757	KeyDown	41324	4	Index	17
328.0733333333334	0	n/a	196845	KeyDown	41324	1	Little	17
328.3466666666667	0	n/a	197009	KeyDown	41324	3	Middle	17
328.5233333333334	0	n/a	197115	KeyDown	41324	2	Ring	17
328.7216666666667	0	n/a	197234	KeyDown	41324	4	Index	17
328.9000000000000	0	n/a	197341	KeyDown	41324	4	Index	17
329.0083333333334	0	n/a	197406	KeyDown	41324	1	Little	17
329.2366666666667	0	n/a	197543	KeyDown	41324	3	Middle	17
329.4516666666667	0	n/a	197672	KeyDown	41324	2	Ring	17
329.6583333333334	0	n/a	197796	KeyDown	41324	4	Index	17
329.8316666666667	0	n/a	197900	KeyDown	41324	4	Index	17
329.9766666666667	0	n/a	197987	KeyDown	41324	1	Little	17
330.1583333333334	0	n/a	198096	KeyDown	41324	3	Middle	17
330.4016666666667	0	n/a	198242	KeyDown	41324	2	Ring	17
330.5750000000000	0	n/a	198346	KeyDown	41324	4	Index	17
330.7583333333334	0	n/a	198456	KeyDown	41324	4	Index	17
330.9283333333333	0	n/a	198558	KeyDown	41324	1	Little	17
331.1033333333334	0	n/a	198663	KeyDown	41324	3	Middle	17
331.3066666666667	0	n/a	198785	KeyDown	41324	2	Ring	17
331.5216666666667	0	n/a	198914	KeyDown	41324	4	Index	17
331.7033333333334	0	n/a	199023	KeyDown	41324	4	Index	17
331.8350000000000	0	n/a	199102	KeyDown	41324	1	Little	17
332.1066666666667	0	n/a	199265	KeyDown	41324	3	Middle	17
332.2883333333334	0	n/a	199374	KeyDown	41324	2	Ring	17
332.4966666666667	0	n/a	199499	KeyDown	41324	4	Index	17
332.6733333333333	0	n/a	199605	KeyDown	41324	4	Index	17
332.7933333333334	0	n/a	199677	KeyDown	41324	1	Little	17
333.0133333333334	0	n/a	199809	KeyDown	41324	3	Middle	17
333.2233333333334	0	n/a	199935	KeyDown	41324	2	Ring	17
333.6466666666667	0	n/a	200189	KeyDown	41324	4	Index	17
333.8133333333333	0	n/a	200289	KeyDown	41324	4	Index	17
334.5066666666667	0	n/a	200705	KeyDown	41324	1	Little	17
334.7300000000000	0	n/a	200839	KeyDown	41324	3	Middle	17
334.8816666666667	0	n/a	200930	StopPractice	41324	n/a	n/a	17
334.8833333333334	0	n/a	200931	StartRest	XXXXX	n/a	n/a	17
344.9250000000000	0	n/a	206956	StopRest	XXXXX	n/a	n/a	17
344.9266666666667	0	UPPT001	206957	StartPractice	41324	n/a	n/a	18
345.3183333333333	0	n/a	207192	KeyDown	41324	4	Index	18
345.6150000000000	0	n/a	207370	KeyDown	41324	1	Little	18
345.8500000000000	0	n/a	207511	KeyDown	41324	3	Middle	18
346.0133333333334	0	n/a	207609	KeyDown	41324	2	Ring	18
346.2266666666667	0	n/a	207737	KeyDown	41324	4	Index	18
346.3866666666667	0	n/a	207833	KeyDown	41324	4	Index	18
346.5366666666667	0	n/a	207923	KeyDown	41324	1	Little	18
346.7283333333334	0	n/a	208038	KeyDown	41324	3	Middle	18
346.8866666666667	0	n/a	208133	KeyDown	41324	2	Ring	18
347.1350000000000	0	n/a	208282	KeyDown	41324	4	Index	18
347.2900000000000	0	n/a	208375	KeyDown	41324	4	Index	18
347.4600000000000	0	n/a	208477	KeyDown	41324	1	Little	18
347.9133333333334	0	n/a	208749	KeyDown	41324	3	Middle	18
348.0583333333333	0	n/a	208836	KeyDown	41324	2	Ring	18
348.3066666666667	0	n/a	208985	KeyDown	41324	4	Index	18
348.4783333333334	0	n/a	209088	KeyDown	41324	4	Index	18
348.6333333333334	0	n/a	209181	KeyDown	41324	1	Little	18
348.8483333333334	0	n/a	209310	KeyDown	41324	3	Middle	18
349.0150000000000	0	n/a	209410	KeyDown	41324	2	Ring	18
349.2533333333333	0	n/a	209553	KeyDown	41324	4	Index	18
349.3950000000000	0	n/a	209638	KeyDown	41324	4	Index	18
349.5233333333334	0	n/a	209715	KeyDown	41324	1	Little	18
349.7383333333333	0	n/a	209844	KeyDown	41324	3	Middle	18
349.8816666666667	0	n/a	209930	KeyDown	41324	2	Ring	18
350.1683333333334	0	n/a	210102	KeyDown	41324	4	Index	18
350.3433333333334	0	n/a	210207	KeyDown	41324	4	Index	18
350.4833333333333	0	n/a	210291	KeyDown	41324	1	Little	18
350.6750000000000	0	n/a	210406	KeyDown	41324	3	Middle	18
350.8250000000000	0	n/a	210496	KeyDown	41324	2	Ring	18
351.4450000000001	0	n/a	210868	KeyDown	41324	4	Index	18
351.6200000000000	0	n/a	210973	KeyDown	41324	4	Index	18
351.9466666666667	0	n/a	211169	KeyDown	41324	1	Little	18
352.2883333333334	0	n/a	211374	KeyDown	41324	3	Middle	18
352.4850000000000	0	n/a	211492	KeyDown	41324	2	Ring	18
352.6900000000000	0	n/a	211615	KeyDown	41324	4	Index	18
352.8533333333334	0	n/a	211713	KeyDown	41324	4	Index	18
352.9983333333333	0	n/a	211800	KeyDown	41324	1	Little	18
353.1783333333333	0	n/a	211908	KeyDown	41324	3	Middle	18
353.3400000000000	0	n/a	212005	KeyDown	41324	2	Ring	18
353.5816666666667	0	n/a	212150	KeyDown	41324	4	Index	18
353.7566666666667	0	n/a	212255	KeyDown	41324	4	Index	18
353.8516666666667	0	n/a	212312	KeyDown	41324	1	Little	18
354.0416666666667	0	n/a	212426	KeyDown	41324	3	Middle	18
354.2300000000000	0	n/a	212539	KeyDown	41324	2	Ring	18
354.4900000000000	0	n/a	212695	KeyDown	41324	4	Index	18
354.6600000000000	0	n/a	212797	KeyDown	41324	4	Index	18
354.7616666666667	0	n/a	212858	KeyDown	41324	1	Little	18
354.9733333333334	0	n/a	212985	StopPractice	41324	n/a	n/a	18
354.9750000000000	0	n/a	212986	StartRest	XXXXX	n/a	n/a	18
365.0150000000000	0	n/a	219010	StopRest	XXXXX	n/a	n/a	18
365.0166666666667	0	UPPT001	219011	StartPractice	41324	n/a	n/a	19
365.5166666666667	0	n/a	219311	KeyDown	41324	4	Index	19
365.6433333333334	0	n/a	219387	KeyDown	41324	1	Little	19
365.9183333333334	0	n/a	219552	KeyDown	41324	2	Ring	19
366.7783333333334	0	n/a	220068	KeyDown	41324	4	Index	19
366.9483333333334	0	n/a	220170	KeyDown	41324	1	Little	19
367.1766666666667	0	n/a	220307	KeyDown	41324	3	Middle	19
367.5900000000000	0	n/a	220555	KeyDown	41324	2	Ring	19
368.0733333333334	0	n/a	220845	KeyDown	41324	4	Index	19
368.2566666666667	0	n/a	220955	KeyDown	41324	4	Index	19
368.4066666666667	0	n/a	221045	KeyDown	41324	1	Little	19
368.6516666666667	0	n/a	221192	KeyDown	41324	3	Middle	19
368.8283333333334	0	n/a	221298	KeyDown	41324	2	Ring	19
369.0716666666667	0	n/a	221444	KeyDown	41324	4	Index	19
369.2616666666667	0	n/a	221558	KeyDown	41324	4	Index	19
369.4183333333334	0	n/a	221652	KeyDown	41324	1	Little	19
369.6400000000000	0	n/a	221785	KeyDown	41324	3	Middle	19
369.8000000000000	0	n/a	221881	KeyDown	41324	2	Ring	19
370.0733333333334	0	n/a	222045	KeyDown	41324	4	Index	19
370.2733333333334	0	n/a	222165	KeyDown	41324	4	Index	19
370.4433333333334	0	n/a	222267	KeyDown	41324	1	Little	19
370.7050000000000	0	n/a	222424	KeyDown	41324	3	Middle	19
370.8950000000000	0	n/a	222538	KeyDown	41324	2	Ring	19
371.1566666666667	0	n/a	222695	KeyDown	41324	4	Index	19
371.3333333333334	0	n/a	222801	KeyDown	41324	4	Index	19
371.4833333333333	0	n/a	222891	KeyDown	41324	1	Little	19
371.7133333333334	0	n/a	223029	KeyDown	41324	3	Middle	19
371.8950000000000	0	n/a	223138	KeyDown	41324	2	Ring	19
372.1383333333334	0	n/a	223284	KeyDown	41324	4	Index	19
372.3150000000000	0	n/a	223390	KeyDown	41324	4	Index	19
372.4833333333333	0	n/a	223491	KeyDown	41324	1	Little	19
372.7050000000000	0	n/a	223624	KeyDown	41324	3	Middle	19
372.9183333333334	0	n/a	223752	KeyDown	41324	2	Ring	19
373.1866666666667	0	n/a	223913	KeyDown	41324	4	Index	19
373.3800000000001	0	n/a	224029	KeyDown	41324	4	Index	19
373.5683333333334	0	n/a	224142	KeyDown	41324	1	Little	19
373.8116666666667	0	n/a	224288	KeyDown	41324	3	Middle	19
373.9983333333333	0	n/a	224400	KeyDown	41324	2	Ring	19
374.3716666666667	0	n/a	224624	KeyDown	41324	4	Index	19
374.5733333333334	0	n/a	224745	KeyDown	41324	4	Index	19
374.7416666666667	0	n/a	224846	KeyDown	41324	1	Little	19
374.9300000000000	0	n/a	224959	KeyDown	41324	3	Middle	19
375.0633333333333	0	n/a	225039	StopPractice	41324	n/a	n/a	19
375.0650000000000	0	n/a	225040	StartRest	XXXXX	n/a	n/a	19
385.0916666666667	0	n/a	231056	StopRest	XXXXX	n/a	n/a	19
385.0933333333334	0	UPPT001	231057	StartPractice	41324	n/a	n/a	20
385.3400000000000	0	n/a	231205	KeyDown	41324	4	Index	20
385.5033333333333	0	n/a	231303	KeyDown	41324	1	Little	20
385.7783333333334	0	n/a	231468	KeyDown	41324	3	Middle	20
385.9366666666667	0	n/a	231563	KeyDown	41324	2	Ring	20
386.1400000000000	0	n/a	231685	KeyDown	41324	4	Index	20
386.3250000000000	0	n/a	231796	KeyDown	41324	4	Index	20
386.4700000000000	0	n/a	231883	KeyDown	41324	1	Little	20
386.7466666666667	0	n/a	232049	KeyDown	41324	3	Middle	20
387.0200000000000	0	n/a	232213	KeyDown	41324	2	Ring	20
387.2816666666667	0	n/a	232370	KeyDown	41324	4	Index	20
387.4766666666667	0	n/a	232487	KeyDown	41324	4	Index	20
387.7500000000000	0	n/a	232651	KeyDown	41324	1	Little	20
388.2866666666667	0	n/a	232973	KeyDown	41324	3	Middle	20
388.4750000000000	0	n/a	233086	KeyDown	41324	2	Ring	20
388.7116666666667	0	n/a	233228	KeyDown	41324	4	Index	20
388.8800000000001	0	n/a	233329	KeyDown	41324	4	Index	20
389.0500000000000	0	n/a	233431	KeyDown	41324	1	Little	20
389.2550000000001	0	n/a	233554	KeyDown	41324	3	Middle	20
389.4600000000000	0	n/a	233677	KeyDown	41324	2	Ring	20
389.6716666666667	0	n/a	233804	KeyDown	41324	4	Index	20
389.8366666666667	0	n/a	233903	KeyDown	41324	4	Index	20
389.9850000000000	0	n/a	233992	KeyDown	41324	1	Little	20
390.2000000000000	0	n/a	234121	KeyDown	41324	3	Middle	20
390.3450000000000	0	n/a	234208	KeyDown	41324	2	Ring	20
390.5750000000000	0	n/a	234346	KeyDown	41324	4	Index	20
390.7483333333333	0	n/a	234450	KeyDown	41324	4	Index	20
390.9100000000000	0	n/a	234547	KeyDown	41324	1	Little	20
391.1550000000000	0	n/a	234694	KeyDown	41324	3	Middle	20
391.3383333333334	0	n/a	234804	KeyDown	41324	2	Ring	20
391.6166666666667	0	n/a	234971	KeyDown	41324	4	Index	20
391.8050000000000	0	n/a	235084	KeyDown	41324	4	Index	20
391.9633333333334	0	n/a	235179	KeyDown	41324	1	Little	20
392.2066666666667	0	n/a	235325	KeyDown	41324	3	Middle	20
392.4166666666667	0	n/a	235451	KeyDown	41324	2	Ring	20
392.7283333333334	0	n/a	235638	KeyDown	41324	4	Index	20
392.9250000000000	0	n/a	235756	KeyDown	41324	4	Index	20
393.0850000000000	0	n/a	235852	KeyDown	41324	1	Little	20
393.2766666666667	0	n/a	235967	KeyDown	41324	3	Middle	20
393.4500000000000	0	n/a	236071	KeyDown	41324	2	Ring	20
393.6933333333334	0	n/a	236217	KeyDown	41324	4	Index	20
393.8916666666667	0	n/a	236336	KeyDown	41324	4	Index	20
394.0766666666667	0	n/a	236447	KeyDown	41324	1	Little	20
394.2666666666667	0	n/a	236561	KeyDown	41324	3	Middle	20
394.4483333333334	0	n/a	236670	KeyDown	41324	2	Ring	20
394.7100000000000	0	n/a	236827	KeyDown	41324	4	Index	20
394.9150000000000	0	n/a	236950	KeyDown	41324	4	Index	20
395.1400000000000	0	n/a	237085	StopPractice	41324	n/a	n/a	20
395.1416666666667	0	n/a	237086	StartRest	XXXXX	n/a	n/a	20
405.1833333333333	0	n/a	243111	StopRest	XXXXX	n/a	n/a	20
405.1850000000000	0	UPPT001	243112	StartPractice	41324	n/a	n/a	21
405.4850000000000	0	n/a	243292	KeyDown	41324	4	Index	21
405.7366666666667	0	n/a	243443	KeyDown	41324	1	Little	21
405.9733333333334	0	n/a	243585	KeyDown	41324	3	Middle	21
406.1533333333334	0	n/a	243693	KeyDown	41324	2	Ring	21
406.3566666666667	0	n/a	243815	KeyDown	41324	4	Index	21
406.5166666666667	0	n/a	243911	KeyDown	41324	4	Index	21
406.6783333333333	0	n/a	244008	KeyDown	41324	1	Little	21
407.2116666666667	0	n/a	244328	KeyDown	41324	4	Index	21
409.6950000000001	0	n/a	245818	KeyDown	41324	3	Middle	21
409.9583333333334	0	n/a	245976	KeyDown	41324	2	Ring	21
410.2533333333334	0	n/a	246153	KeyDown	41324	4	Index	21
410.7466666666667	0	n/a	246449	KeyDown	41324	1	Little	21
411.2133333333334	0	n/a	246729	KeyDown	41324	3	Middle	21
411.4483333333334	0	n/a	246870	KeyDown	41324	2	Ring	21
411.6800000000000	0	n/a	247009	KeyDown	41324	4	Index	21
411.8900000000000	0	n/a	247135	KeyDown	41324	1	Little	21
412.4616666666667	0	n/a	247478	KeyDown	41324	3	Middle	21
412.6216666666667	0	n/a	247574	KeyDown	41324	2	Ring	21
412.9133333333334	0	n/a	247749	KeyDown	41324	4	Index	21
413.0866666666667	0	n/a	247853	KeyDown	41324	4	Index	21
413.2500000000000	0	n/a	247951	KeyDown	41324	1	Little	21
413.4700000000000	0	n/a	248083	KeyDown	41324	3	Middle	21
413.5866666666667	0	n/a	248153	KeyDown	41324	2	Ring	21
413.8116666666667	0	n/a	248288	KeyDown	41324	4	Index	21
413.9816666666667	0	n/a	248390	KeyDown	41324	4	Index	21
414.3733333333333	0	n/a	248625	KeyDown	41324	1	Little	21
414.7533333333334	0	n/a	248853	KeyDown	41324	3	Middle	21
414.9233333333333	0	n/a	248955	KeyDown	41324	2	Ring	21
415.1516666666667	0	n/a	249092	KeyDown	41324	4	Index	21
415.2316666666667	0	n/a	249140	StopPractice	41324	n/a	n/a	21
415.2333333333333	0	n/a	249141	StartRest	XXXXX	n/a	n/a	21
425.2566666666667	0	n/a	255155	StopRest	XXXXX	n/a	n/a	21
425.2583333333334	0	UPPT001	255156	StartPractice	41324	n/a	n/a	22
425.8133333333333	0	n/a	255489	KeyDown	41324	4	Index	22
426.0616666666667	0	n/a	255638	KeyDown	41324	1	Little	22
426.3133333333333	0	n/a	255789	KeyDown	41324	3	Middle	22
426.5066666666667	0	n/a	255905	KeyDown	41324	2	Ring	22
426.7100000000000	0	n/a	256027	KeyDown	41324	4	Index	22
426.9000000000000	0	n/a	256141	KeyDown	41324	4	Index	22
427.1033333333334	0	n/a	256263	KeyDown	41324	1	Little	22
427.4550000000000	0	n/a	256474	KeyDown	41324	3	Middle	22
427.6300000000001	0	n/a	256579	KeyDown	41324	2	Ring	22
427.8316666666667	0	n/a	256700	KeyDown	41324	4	Index	22
428.0250000000000	0	n/a	256816	KeyDown	41324	4	Index	22
428.2150000000000	0	n/a	256930	KeyDown	41324	1	Little	22
428.6600000000000	0	n/a	257197	KeyDown	41324	3	Middle	22
428.9450000000001	0	n/a	257368	KeyDown	41324	2	Ring	22
429.2150000000000	0	n/a	257530	KeyDown	41324	4	Index	22
429.3966666666667	0	n/a	257639	KeyDown	41324	4	Index	22
429.6283333333334	0	n/a	257778	KeyDown	41324	1	Little	22
429.8216666666667	0	n/a	257894	KeyDown	41324	3	Middle	22
429.9950000000000	0	n/a	257998	KeyDown	41324	2	Ring	22
430.2133333333334	0	n/a	258129	KeyDown	41324	4	Index	22
430.4000000000000	0	n/a	258241	KeyDown	41324	4	Index	22
430.6550000000000	0	n/a	258394	KeyDown	41324	1	Little	22
430.9366666666667	0	n/a	258563	KeyDown	41324	3	Middle	22
431.1483333333334	0	n/a	258690	KeyDown	41324	2	Ring	22
431.4050000000000	0	n/a	258844	KeyDown	41324	4	Index	22
431.5983333333334	0	n/a	258960	KeyDown	41324	4	Index	22
431.8050000000000	0	n/a	259084	KeyDown	41324	1	Little	22
432.0883333333334	0	n/a	259254	KeyDown	41324	3	Middle	22
432.2933333333334	0	n/a	259377	KeyDown	41324	2	Ring	22
432.5616666666667	0	n/a	259538	KeyDown	41324	4	Index	22
432.7516666666667	0	n/a	259652	KeyDown	41324	4	Index	22
432.9800000000000	0	n/a	259789	KeyDown	41324	1	Little	22
433.3300000000000	0	n/a	259999	KeyDown	41324	3	Middle	22
433.5500000000000	0	n/a	260131	KeyDown	41324	2	Ring	22
433.8600000000000	0	n/a	260317	KeyDown	41324	4	Index	22
434.0266666666667	0	n/a	260417	KeyDown	41324	4	Index	22
434.2333333333333	0	n/a	260541	KeyDown	41324	1	Little	22
434.6750000000000	0	n/a	260806	KeyDown	41324	3	Middle	22
434.8966666666667	0	n/a	260939	KeyDown	41324	2	Ring	22
435.3050000000000	0	n/a	261184	StopPractice	41324	n/a	n/a	22
435.3066666666667	0	n/a	261185	StartRest	XXXXX	n/a	n/a	22
445.3316666666667	0	n/a	267200	StopRest	XXXXX	n/a	n/a	22
445.3333333333334	0	UPPT001	267201	StartPractice	41324	n/a	n/a	23
445.7150000000000	0	n/a	267430	KeyDown	41324	4	Index	23
445.8700000000000	0	n/a	267523	KeyDown	41324	1	Little	23
446.0550000000000	0	n/a	267634	KeyDown	41324	3	Middle	23
446.2350000000000	0	n/a	267742	KeyDown	41324	2	Ring	23
446.5433333333334	0	n/a	267927	KeyDown	41324	4	Index	23
446.7133333333334	0	n/a	268029	KeyDown	41324	4	Index	23
446.8866666666667	0	n/a	268133	KeyDown	41324	1	Little	23
447.4216666666667	0	n/a	268454	KeyDown	41324	3	Middle	23
447.6366666666667	0	n/a	268583	KeyDown	41324	2	Ring	23
447.8700000000000	0	n/a	268723	KeyDown	41324	4	Index	23
448.0200000000000	0	n/a	268813	KeyDown	41324	4	Index	23
448.1850000000000	0	n/a	268912	KeyDown	41324	1	Little	23
448.3766666666667	0	n/a	269027	KeyDown	41324	3	Middle	23
448.5400000000000	0	n/a	269125	KeyDown	41324	2	Ring	23
448.7983333333333	0	n/a	269280	KeyDown	41324	4	Index	23
448.9700000000000	0	n/a	269383	KeyDown	41324	4	Index	23
449.1150000000000	0	n/a	269470	KeyDown	41324	1	Little	23
449.3466666666667	0	n/a	269609	KeyDown	41324	3	Middle	23
449.5616666666667	0	n/a	269738	KeyDown	41324	2	Ring	23
449.8116666666667	0	n/a	269888	KeyDown	41324	4	Index	23
449.9983333333333	0	n/a	270000	KeyDown	41324	4	Index	23
450.2000000000000	0	n/a	270121	KeyDown	41324	1	Little	23
450.4333333333333	0	n/a	270261	KeyDown	41324	3	Middle	23
450.6150000000000	0	n/a	270370	KeyDown	41324	2	Ring	23
450.8250000000000	0	n/a	270496	KeyDown	41324	4	Index	23
451.0050000000001	0	n/a	270604	KeyDown	41324	4	Index	23
451.1633333333334	0	n/a	270699	KeyDown	41324	1	Little	23
451.5950000000000	0	n/a	270958	KeyDown	41324	3	Middle	23
451.7416666666667	0	n/a	271046	KeyDown	41324	2	Ring	23
451.9700000000000	0	n/a	271183	KeyDown	41324	4	Index	23
452.1316666666667	0	n/a	271280	KeyDown	41324	4	Index	23
452.2900000000000	0	n/a	271375	KeyDown	41324	1	Little	23
452.5666666666667	0	n/a	271541	KeyDown	41324	3	Middle	23
452.7216666666667	0	n/a	271634	KeyDown	41324	2	Ring	23
452.9800000000000	0	n/a	271789	KeyDown	41324	4	Index	23
453.1566666666667	0	n/a	271895	KeyDown	41324	4	Index	23
453.3516666666667	0	n/a	272012	KeyDown	41324	1	Little	23
453.6750000000000	0	n/a	272206	KeyDown	41324	3	Middle	23
453.8300000000000	0	n/a	272299	KeyDown	41324	2	Ring	23
454.0500000000000	0	n/a	272431	KeyDown	41324	4	Index	23
454.2100000000000	0	n/a	272527	KeyDown	41324	4	Index	23
454.3783333333334	0	n/a	272628	KeyDown	41324	1	Little	23
454.5466666666667	0	n/a	272729	KeyDown	41324	3	Middle	23
454.6600000000000	0	n/a	272797	KeyDown	41324	2	Ring	23
454.9433333333334	0	n/a	272967	KeyDown	41324	4	Index	23
455.1300000000001	0	n/a	273079	KeyDown	41324	4	Index	23
455.2283333333334	0	n/a	273138	KeyDown	41324	1	Little	23
455.3800000000001	0	n/a	273229	StopPractice	41324	n/a	n/a	23
455.3816666666667	0	n/a	273230	StartRest	XXXXX	n/a	n/a	23
465.4050000000000	0	n/a	279244	StopRest	XXXXX	n/a	n/a	23
465.4066666666667	0	UPPT001	279245	StartPractice	41324	n/a	n/a	24
465.8750000000001	0	n/a	279526	KeyDown	41324	4	Index	24
465.9983333333333	0	n/a	279600	KeyDown	41324	1	Little	24
466.2083333333334	0	n/a	279726	KeyDown	41324	3	Middle	24
466.3300000000000	0	n/a	279799	KeyDown	41324	2	Ring	24
466.5483333333333	0	n/a	279930	KeyDown	41324	4	Index	24
466.6950000000001	0	n/a	280018	KeyDown	41324	4	Index	24
466.8300000000000	0	n/a	280099	KeyDown	41324	1	Little	24
467.0200000000000	0	n/a	280213	KeyDown	41324	3	Middle	24
467.1650000000000	0	n/a	280300	KeyDown	41324	2	Ring	24
467.3800000000001	0	n/a	280429	KeyDown	41324	4	Index	24
467.5300000000000	0	n/a	280519	KeyDown	41324	4	Index	24
467.6533333333334	0	n/a	280593	KeyDown	41324	1	Little	24
467.8183333333334	0	n/a	280692	KeyDown	41324	3	Middle	24
467.9433333333334	0	n/a	280767	KeyDown	41324	2	Ring	24
468.1733333333333	0	n/a	280905	KeyDown	41324	4	Index	24
468.3316666666667	0	n/a	281000	KeyDown	41324	4	Index	24
468.4350000000000	0	n/a	281062	KeyDown	41324	1	Little	24
468.6083333333333	0	n/a	281166	KeyDown	41324	3	Middle	24
468.7333333333333	0	n/a	281241	KeyDown	41324	2	Ring	24
468.9583333333334	0	n/a	281376	KeyDown	41324	4	Index	24
469.1133333333333	0	n/a	281469	KeyDown	41324	4	Index	24
469.2233333333334	0	n/a	281535	KeyDown	41324	1	Little	24
469.4283333333333	0	n/a	281658	KeyDown	41324	3	Middle	24
469.5216666666667	0	n/a	281714	KeyDown	41324	2	Ring	24
469.7533333333334	0	n/a	281853	KeyDown	41324	4	Index	24
469.9150000000000	0	n/a	281950	KeyDown	41324	4	Index	24
470.0633333333334	0	n/a	282039	KeyDown	41324	1	Little	24
470.2650000000000	0	n/a	282160	KeyDown	41324	3	Middle	24
470.3850000000000	0	n/a	282232	KeyDown	41324	2	Ring	24
470.6250000000001	0	n/a	282376	KeyDown	41324	4	Index	24
470.7766666666667	0	n/a	282467	KeyDown	41324	4	Index	24
470.8900000000000	0	n/a	282535	KeyDown	41324	1	Little	24
471.0816666666667	0	n/a	282650	KeyDown	41324	3	Middle	24
471.2133333333334	0	n/a	282729	KeyDown	41324	2	Ring	24
471.4200000000000	0	n/a	282853	KeyDown	41324	4	Index	24
471.5850000000000	0	n/a	282952	KeyDown	41324	4	Index	24
472.0850000000000	0	n/a	283252	KeyDown	41324	1	Little	24
472.3133333333334	0	n/a	283389	KeyDown	41324	3	Middle	24
472.4433333333334	0	n/a	283467	KeyDown	41324	2	Ring	24
472.6850000000000	0	n/a	283612	KeyDown	41324	4	Index	24
472.8216666666667	0	n/a	283694	KeyDown	41324	4	Index	24
472.9883333333333	0	n/a	283794	KeyDown	41324	1	Little	24
473.1533333333334	0	n/a	283893	KeyDown	41324	3	Middle	24
473.3050000000000	0	n/a	283984	KeyDown	41324	2	Ring	24
473.6450000000000	0	n/a	284188	KeyDown	41324	4	Index	24
473.7916666666667	0	n/a	284276	KeyDown	41324	4	Index	24
473.9450000000001	0	n/a	284368	KeyDown	41324	1	Little	24
474.0700000000001	0	n/a	284443	KeyDown	41324	3	Middle	24
474.2450000000000	0	n/a	284548	KeyDown	41324	2	Ring	24
474.8116666666667	0	n/a	284888	KeyDown	41324	4	Index	24
474.9616666666667	0	n/a	284978	KeyDown	41324	3	Middle	24
474.9783333333334	0	n/a	284988	KeyDown	41324	4	Index	24
475.0866666666667	0	n/a	285053	KeyDown	41324	3	Middle	24
475.1850000000000	0	n/a	285112	KeyDown	41324	2	Ring	24
475.2600000000000	0	n/a	285157	KeyDown	41324	1	Little	24
475.4233333333333	0	n/a	285255	KeyDown	41324	3	Middle	24
475.4533333333334	0	n/a	285273	StopPractice	41324	n/a	n/a	24
475.4550000000000	0	n/a	285274	StartRest	XXXXX	n/a	n/a	24
485.4966666666667	0	n/a	291299	StopRest	XXXXX	n/a	n/a	24
485.4983333333334	0	UPPT001	291300	StartPractice	41324	n/a	n/a	25
486.1150000000000	0	n/a	291670	KeyDown	41324	4	Index	25
486.2916666666667	0	n/a	291776	KeyDown	41324	1	Little	25
486.4500000000000	0	n/a	291871	KeyDown	41324	3	Middle	25
486.6150000000000	0	n/a	291970	KeyDown	41324	2	Ring	25
486.8566666666667	0	n/a	292115	KeyDown	41324	4	Index	25
487.0150000000000	0	n/a	292210	KeyDown	41324	4	Index	25
487.1166666666667	0	n/a	292271	KeyDown	41324	1	Little	25
487.3766666666667	0	n/a	292427	KeyDown	41324	3	Middle	25
487.5016666666667	0	n/a	292502	KeyDown	41324	2	Ring	25
487.7066666666667	0	n/a	292625	KeyDown	41324	4	Index	25
487.8616666666667	0	n/a	292718	KeyDown	41324	4	Index	25
487.9866666666667	0	n/a	292793	KeyDown	41324	1	Little	25
488.1783333333333	0	n/a	292908	KeyDown	41324	3	Middle	25
488.3266666666667	0	n/a	292997	KeyDown	41324	2	Ring	25
488.5633333333334	0	n/a	293139	KeyDown	41324	4	Index	25
488.7100000000000	0	n/a	293227	KeyDown	41324	4	Index	25
488.9066666666667	0	n/a	293345	KeyDown	41324	1	Little	25
489.1200000000000	0	n/a	293473	KeyDown	41324	3	Middle	25
489.2816666666667	0	n/a	293570	KeyDown	41324	2	Ring	25
489.5566666666667	0	n/a	293735	KeyDown	41324	4	Index	25
489.7100000000000	0	n/a	293827	KeyDown	41324	4	Index	25
489.8316666666667	0	n/a	293900	KeyDown	41324	1	Little	25
490.0100000000000	0	n/a	294007	KeyDown	41324	3	Middle	25
490.1916666666667	0	n/a	294116	KeyDown	41324	2	Ring	25
490.3900000000000	0	n/a	294235	KeyDown	41324	4	Index	25
490.5366666666667	0	n/a	294323	KeyDown	41324	4	Index	25
490.6800000000000	0	n/a	294409	KeyDown	41324	1	Little	25
490.8733333333334	0	n/a	294525	KeyDown	41324	3	Middle	25
491.0483333333333	0	n/a	294630	KeyDown	41324	2	Ring	25
491.2716666666667	0	n/a	294764	KeyDown	41324	4	Index	25
491.4166666666667	0	n/a	294851	KeyDown	41324	4	Index	25
491.5450000000000	0	n/a	294928	KeyDown	41324	1	Little	25
491.7266666666667	0	n/a	295037	KeyDown	41324	3	Middle	25
491.8716666666667	0	n/a	295124	KeyDown	41324	2	Ring	25
492.1233333333334	0	n/a	295275	KeyDown	41324	4	Index	25
492.2783333333334	0	n/a	295368	KeyDown	41324	4	Index	25
492.3666666666667	0	n/a	295421	KeyDown	41324	1	Little	25
492.5833333333334	0	n/a	295551	KeyDown	41324	3	Middle	25
492.7600000000000	0	n/a	295657	KeyDown	41324	2	Ring	25
492.9733333333334	0	n/a	295785	KeyDown	41324	4	Index	25
493.1283333333334	0	n/a	295878	KeyDown	41324	4	Index	25
493.2400000000000	0	n/a	295945	KeyDown	41324	1	Little	25
493.3983333333334	0	n/a	296040	KeyDown	41324	3	Middle	25
493.5333333333334	0	n/a	296121	KeyDown	41324	2	Ring	25
493.7566666666667	0	n/a	296255	KeyDown	41324	4	Index	25
493.9050000000000	0	n/a	296344	KeyDown	41324	4	Index	25
494.0116666666667	0	n/a	296408	KeyDown	41324	1	Little	25
494.1900000000001	0	n/a	296515	KeyDown	41324	3	Middle	25
494.3716666666667	0	n/a	296624	KeyDown	41324	2	Ring	25
494.6200000000000	0	n/a	296773	KeyDown	41324	4	Index	25
494.7250000000000	0	n/a	296836	KeyDown	41324	4	Index	25
494.8500000000000	0	n/a	296911	KeyDown	41324	1	Little	25
494.9850000000000	0	n/a	296992	KeyDown	41324	3	Middle	25
495.1783333333333	0	n/a	297108	KeyDown	41324	2	Ring	25
495.5450000000000	0	n/a	297328	StopPractice	41324	n/a	n/a	25
495.5466666666667	0	n/a	297329	StartRest	XXXXX	n/a	n/a	25
505.5883333333334	0	n/a	303354	StopRest	XXXXX	n/a	n/a	25
505.5900000000000	0	UPPT001	303355	StartPractice	41324	n/a	n/a	26
505.9333333333334	0	n/a	303561	KeyDown	41324	4	Index	26
506.0366666666667	0	n/a	303623	KeyDown	41324	1	Little	26
506.2583333333334	0	n/a	303756	KeyDown	41324	3	Middle	26
506.4033333333334	0	n/a	303843	KeyDown	41324	2	Ring	26
506.6350000000000	0	n/a	303982	KeyDown	41324	4	Index	26
506.8083333333334	0	n/a	304086	KeyDown	41324	4	Index	26
506.9633333333334	0	n/a	304179	KeyDown	41324	1	Little	26
507.1483333333334	0	n/a	304290	KeyDown	41324	3	Middle	26
507.2900000000000	0	n/a	304375	KeyDown	41324	2	Ring	26
507.4966666666667	0	n/a	304499	KeyDown	41324	4	Index	26
507.6383333333334	0	n/a	304584	KeyDown	41324	4	Index	26
507.7516666666667	0	n/a	304652	KeyDown	41324	1	Little	26
507.9516666666667	0	n/a	304772	KeyDown	41324	3	Middle	26
508.0750000000000	0	n/a	304846	KeyDown	41324	2	Ring	26
508.2966666666667	0	n/a	304979	KeyDown	41324	4	Index	26
508.4533333333334	0	n/a	305073	KeyDown	41324	4	Index	26
508.5866666666667	0	n/a	305153	KeyDown	41324	1	Little	26
508.7616666666667	0	n/a	305258	KeyDown	41324	3	Middle	26
508.9050000000000	0	n/a	305344	KeyDown	41324	2	Ring	26
509.1033333333334	0	n/a	305463	KeyDown	41324	4	Index	26
509.2550000000001	0	n/a	305554	KeyDown	41324	4	Index	26
509.3716666666667	0	n/a	305624	KeyDown	41324	1	Little	26
509.5650000000001	0	n/a	305740	KeyDown	41324	3	Middle	26
509.7033333333334	0	n/a	305823	KeyDown	41324	2	Ring	26
509.9116666666667	0	n/a	305948	KeyDown	41324	4	Index	26
510.0783333333334	0	n/a	306048	KeyDown	41324	4	Index	26
510.1916666666667	0	n/a	306116	KeyDown	41324	1	Little	26
510.3766666666667	0	n/a	306227	KeyDown	41324	3	Middle	26
510.5483333333333	0	n/a	306330	KeyDown	41324	2	Ring	26
510.7833333333334	0	n/a	306471	KeyDown	41324	4	Index	26
510.9333333333334	0	n/a	306561	KeyDown	41324	4	Index	26
511.0416666666667	0	n/a	306626	KeyDown	41324	1	Little	26
511.2316666666667	0	n/a	306740	KeyDown	41324	3	Middle	26
511.3750000000001	0	n/a	306826	KeyDown	41324	2	Ring	26
511.5866666666667	0	n/a	306953	KeyDown	41324	4	Index	26
511.7283333333334	0	n/a	307038	KeyDown	41324	4	Index	26
511.8216666666667	0	n/a	307094	KeyDown	41324	1	Little	26
511.9700000000000	0	n/a	307183	KeyDown	41324	3	Middle	26
512.1583333333334	0	n/a	307296	KeyDown	41324	2	Ring	26
512.4316666666667	0	n/a	307460	KeyDown	41324	4	Index	26
512.5650000000001	0	n/a	307540	KeyDown	41324	4	Index	26
512.6600000000001	0	n/a	307597	KeyDown	41324	1	Little	26
512.8333333333334	0	n/a	307701	KeyDown	41324	3	Middle	26
512.9883333333333	0	n/a	307794	KeyDown	41324	2	Ring	26
513.2533333333333	0	n/a	307953	KeyDown	41324	4	Index	26
513.4100000000001	0	n/a	308047	KeyDown	41324	4	Index	26
513.5050000000000	0	n/a	308104	KeyDown	41324	1	Little	26
513.7083333333334	0	n/a	308226	KeyDown	41324	3	Middle	26
513.8716666666667	0	n/a	308324	KeyDown	41324	2	Ring	26
514.1716666666667	0	n/a	308504	KeyDown	41324	4	Index	26
514.3450000000000	0	n/a	308608	KeyDown	41324	4	Index	26
514.4533333333334	0	n/a	308673	KeyDown	41324	1	Little	26
514.6216666666667	0	n/a	308774	KeyDown	41324	3	Middle	26
514.7933333333334	0	n/a	308877	KeyDown	41324	2	Ring	26
515.0316666666668	0	n/a	309020	KeyDown	41324	4	Index	26
515.1716666666667	0	n/a	309104	KeyDown	41324	4	Index	26
515.2666666666667	0	n/a	309161	KeyDown	41324	1	Little	26
515.4133333333334	0	n/a	309249	KeyDown	41324	3	Middle	26
515.5800000000000	0	n/a	309349	KeyDown	41324	2	Ring	26
515.6366666666667	0	n/a	309383	StopPractice	41324	n/a	n/a	26
515.6383333333333	0	n/a	309384	StartRest	XXXXX	n/a	n/a	26
525.6800000000001	0	n/a	315409	StopRest	XXXXX	n/a	n/a	26
525.6816666666667	0	UPPT001	315410	StartPractice	41324	n/a	n/a	27
525.9833333333333	0	n/a	315591	KeyDown	41324	4	Index	27
526.1083333333333	0	n/a	315666	KeyDown	41324	1	Little	27
526.2883333333334	0	n/a	315774	KeyDown	41324	3	Middle	27
526.4433333333334	0	n/a	315867	KeyDown	41324	2	Ring	27
526.6300000000000	0	n/a	315979	KeyDown	41324	4	Index	27
526.7733333333333	0	n/a	316065	KeyDown	41324	4	Index	27
526.8833333333333	0	n/a	316131	KeyDown	41324	1	Little	27
527.1033333333334	0	n/a	316263	KeyDown	41324	3	Middle	27
527.3800000000000	0	n/a	316429	KeyDown	41324	2	Ring	27
527.5866666666667	0	n/a	316553	KeyDown	41324	4	Index	27
527.7433333333333	0	n/a	316647	KeyDown	41324	4	Index	27
527.8500000000000	0	n/a	316711	KeyDown	41324	1	Little	27
528.0133333333333	0	n/a	316809	KeyDown	41324	3	Middle	27
528.1716666666667	0	n/a	316904	KeyDown	41324	2	Ring	27
528.3666666666667	0	n/a	317021	KeyDown	41324	4	Index	27
528.5116666666667	0	n/a	317108	KeyDown	41324	4	Index	27
528.6183333333333	0	n/a	317172	KeyDown	41324	1	Little	27
528.8083333333334	0	n/a	317286	KeyDown	41324	3	Middle	27
529.0183333333333	0	n/a	317412	KeyDown	41324	2	Ring	27
529.2483333333333	0	n/a	317550	KeyDown	41324	4	Index	27
529.3983333333333	0	n/a	317640	KeyDown	41324	4	Index	27
529.5383333333334	0	n/a	317724	KeyDown	41324	1	Little	27
529.7250000000000	0	n/a	317836	KeyDown	41324	3	Middle	27
529.8550000000000	0	n/a	317914	KeyDown	41324	2	Ring	27
530.0766666666667	0	n/a	318047	KeyDown	41324	4	Index	27
530.2350000000000	0	n/a	318142	KeyDown	41324	4	Index	27
530.3466666666667	0	n/a	318209	KeyDown	41324	1	Little	27
530.5150000000000	0	n/a	318310	KeyDown	41324	3	Middle	27
530.6666666666667	0	n/a	318401	KeyDown	41324	2	Ring	27
530.9300000000001	0	n/a	318559	KeyDown	41324	4	Index	27
531.0933333333334	0	n/a	318657	KeyDown	41324	4	Index	27
531.2200000000000	0	n/a	318733	KeyDown	41324	1	Little	27
531.3733333333333	0	n/a	318825	KeyDown	41324	4	Index	27
531.8283333333334	0	n/a	319098	KeyDown	41324	3	Middle	27
532.0533333333334	0	n/a	319233	KeyDown	41324	2	Ring	27
532.6000000000000	0	n/a	319561	KeyDown	41324	1	Little	27
533.2883333333334	0	n/a	319974	KeyDown	41324	4	Index	27
533.5833333333334	0	n/a	320151	KeyDown	41324	1	Little	27
533.8983333333333	0	n/a	320340	KeyDown	41324	3	Middle	27
534.0733333333334	0	n/a	320445	KeyDown	41324	2	Ring	27
534.4083333333334	0	n/a	320646	KeyDown	41324	4	Index	27
534.9933333333333	0	n/a	320997	KeyDown	41324	1	Little	27
535.3650000000000	0	n/a	321220	KeyDown	41324	3	Middle	27
535.5283333333334	0	n/a	321318	KeyDown	41324	2	Ring	27
535.7283333333334	0	n/a	321438	StopPractice	41324	n/a	n/a	27
535.7300000000000	0	n/a	321439	StartRest	XXXXX	n/a	n/a	27
545.7550000000000	0	n/a	327454	StopRest	XXXXX	n/a	n/a	27
545.7566666666667	0	UPPT001	327455	StartPractice	41324	n/a	n/a	28
546.1983333333334	0	n/a	327720	KeyDown	41324	4	Index	28
546.4800000000000	0	n/a	327889	KeyDown	41324	1	Little	28
546.7133333333334	0	n/a	328029	KeyDown	41324	3	Middle	28
546.8716666666667	0	n/a	328124	KeyDown	41324	2	Ring	28
547.1216666666667	0	n/a	328274	KeyDown	41324	4	Index	28
547.2850000000001	0	n/a	328372	KeyDown	41324	4	Index	28
547.4700000000000	0	n/a	328483	KeyDown	41324	1	Little	28
547.6466666666666	0	n/a	328589	KeyDown	41324	3	Middle	28
547.8316666666667	0	n/a	328700	KeyDown	41324	2	Ring	28
548.0233333333333	0	n/a	328815	KeyDown	41324	4	Index	28
548.1833333333334	0	n/a	328911	KeyDown	41324	4	Index	28
548.3100000000001	0	n/a	328987	KeyDown	41324	1	Little	28
548.4883333333333	0	n/a	329094	KeyDown	41324	3	Middle	28
548.6350000000000	0	n/a	329182	KeyDown	41324	2	Ring	28
548.8550000000000	0	n/a	329314	KeyDown	41324	4	Index	28
549.0083333333333	0	n/a	329406	KeyDown	41324	4	Index	28
549.1183333333333	0	n/a	329472	KeyDown	41324	1	Little	28
549.3533333333334	0	n/a	329613	KeyDown	41324	3	Middle	28
549.5183333333333	0	n/a	329712	KeyDown	41324	2	Ring	28
549.7600000000000	0	n/a	329857	KeyDown	41324	4	Index	28
549.9150000000001	0	n/a	329950	KeyDown	41324	4	Index	28
550.0050000000000	0	n/a	330004	KeyDown	41324	1	Little	28
550.2816666666668	0	n/a	330170	KeyDown	41324	3	Middle	28
550.4350000000001	0	n/a	330262	KeyDown	41324	2	Ring	28
550.6600000000001	0	n/a	330397	KeyDown	41324	4	Index	28
550.8150000000001	0	n/a	330490	KeyDown	41324	4	Index	28
550.9083333333334	0	n/a	330546	KeyDown	41324	1	Little	28
551.1233333333333	0	n/a	330675	KeyDown	41324	3	Middle	28
551.2600000000000	0	n/a	330757	KeyDown	41324	2	Ring	28
551.5100000000000	0	n/a	330907	KeyDown	41324	4	Index	28
551.6583333333334	0	n/a	330996	KeyDown	41324	4	Index	28
551.7700000000000	0	n/a	331063	KeyDown	41324	1	Little	28
551.9683333333334	0	n/a	331182	KeyDown	41324	3	Middle	28
552.1083333333333	0	n/a	331266	KeyDown	41324	2	Ring	28
552.3333333333334	0	n/a	331401	KeyDown	41324	4	Index	28
552.4766666666667	0	n/a	331487	KeyDown	41324	4	Index	28
552.5933333333334	0	n/a	331557	KeyDown	41324	1	Little	28
552.7733333333333	0	n/a	331665	KeyDown	41324	3	Middle	28
552.9416666666667	0	n/a	331766	KeyDown	41324	2	Ring	28
553.1883333333334	0	n/a	331914	KeyDown	41324	4	Index	28
553.3150000000001	0	n/a	331990	KeyDown	41324	4	Index	28
553.3966666666666	0	n/a	332039	KeyDown	41324	1	Little	28
553.6850000000001	0	n/a	332212	KeyDown	41324	3	Middle	28
553.8350000000000	0	n/a	332302	KeyDown	41324	2	Ring	28
554.0883333333334	0	n/a	332454	KeyDown	41324	4	Index	28
554.2350000000000	0	n/a	332542	KeyDown	41324	4	Index	28
554.3266666666667	0	n/a	332597	KeyDown	41324	1	Little	28
554.9150000000001	0	n/a	332950	KeyDown	41324	3	Middle	28
555.0616666666667	0	n/a	333038	KeyDown	41324	2	Ring	28
555.3950000000000	0	n/a	333238	KeyDown	41324	4	Index	28
555.5650000000001	0	n/a	333340	KeyDown	41324	4	Index	28
555.6783333333334	0	n/a	333408	KeyDown	41324	1	Little	28
555.8033333333334	0	n/a	333483	StopPractice	41324	n/a	n/a	28
555.8050000000001	0	n/a	333484	StartRest	XXXXX	n/a	n/a	28
565.8466666666667	0	n/a	339509	StopRest	XXXXX	n/a	n/a	28
565.8483333333334	0	UPPT001	339510	StartPractice	41324	n/a	n/a	29
566.3433333333334	0	n/a	339807	KeyDown	41324	4	Index	29
566.6033333333334	0	n/a	339963	KeyDown	41324	1	Little	29
566.8083333333334	0	n/a	340086	KeyDown	41324	3	Middle	29
566.9500000000000	0	n/a	340171	KeyDown	41324	2	Ring	29
567.1550000000001	0	n/a	340294	KeyDown	41324	4	Index	29
567.3133333333334	0	n/a	340389	KeyDown	41324	4	Index	29
567.4200000000001	0	n/a	340453	KeyDown	41324	1	Little	29
567.6066666666667	0	n/a	340565	KeyDown	41324	3	Middle	29
567.7333333333333	0	n/a	340641	KeyDown	41324	2	Ring	29
567.9766666666667	0	n/a	340787	KeyDown	41324	4	Index	29
568.1033333333334	0	n/a	340863	KeyDown	41324	4	Index	29
568.2083333333334	0	n/a	340926	KeyDown	41324	1	Little	29
568.4616666666667	0	n/a	341078	KeyDown	41324	3	Middle	29
568.6333333333333	0	n/a	341181	KeyDown	41324	2	Ring	29
568.8233333333334	0	n/a	341295	KeyDown	41324	4	Index	29
568.9850000000000	0	n/a	341392	KeyDown	41324	4	Index	29
569.0616666666667	0	n/a	341438	KeyDown	41324	1	Little	29
569.3916666666667	0	n/a	341636	KeyDown	41324	3	Middle	29
569.5850000000000	0	n/a	341752	KeyDown	41324	3	Middle	29
569.8183333333334	0	n/a	341892	KeyDown	41324	2	Ring	29
570.4550000000000	0	n/a	342274	KeyDown	41324	4	Index	29
570.6050000000000	0	n/a	342364	KeyDown	41324	4	Index	29
570.7633333333333	0	n/a	342459	KeyDown	41324	1	Little	29
571.0116666666667	0	n/a	342608	KeyDown	41324	3	Middle	29
571.1633333333334	0	n/a	342699	KeyDown	41324	2	Ring	29
571.3916666666667	0	n/a	342836	KeyDown	41324	4	Index	29
571.5500000000001	0	n/a	342931	KeyDown	41324	4	Index	29
571.6650000000001	0	n/a	343000	KeyDown	41324	1	Little	29
571.8450000000000	0	n/a	343108	KeyDown	41324	3	Middle	29
571.9700000000000	0	n/a	343183	KeyDown	41324	2	Ring	29
572.2266666666667	0	n/a	343337	KeyDown	41324	4	Index	29
572.3566666666667	0	n/a	343415	KeyDown	41324	4	Index	29
572.4650000000000	0	n/a	343480	KeyDown	41324	1	Little	29
572.8216666666667	0	n/a	343694	KeyDown	41324	3	Middle	29
572.9250000000001	0	n/a	343756	KeyDown	41324	2	Ring	29
573.1666666666667	0	n/a	343901	KeyDown	41324	4	Index	29
573.3183333333334	0	n/a	343992	KeyDown	41324	4	Index	29
573.4200000000001	0	n/a	344053	KeyDown	41324	1	Little	29
573.7000000000000	0	n/a	344221	KeyDown	41324	3	Middle	29
573.8266666666667	0	n/a	344297	KeyDown	41324	2	Ring	29
574.0716666666667	0	n/a	344444	KeyDown	41324	4	Index	29
574.2300000000000	0	n/a	344539	KeyDown	41324	4	Index	29
574.3783333333333	0	n/a	344628	KeyDown	41324	1	Little	29
574.5516666666667	0	n/a	344732	KeyDown	41324	3	Middle	29
574.7016666666667	0	n/a	344822	KeyDown	41324	2	Ring	29
574.9216666666667	0	n/a	344954	KeyDown	41324	4	Index	29
575.0566666666667	0	n/a	345035	KeyDown	41324	4	Index	29
575.1850000000001	0	n/a	345112	KeyDown	41324	1	Little	29
575.4083333333334	0	n/a	345246	KeyDown	41324	3	Middle	29
575.4883333333333	0	n/a	345294	KeyDown	41324	4	Index	29
575.7650000000000	0	n/a	345460	KeyDown	41324	3	Middle	29
575.8950000000000	0	n/a	345538	StopPractice	41324	n/a	n/a	29
575.8966666666666	0	n/a	345539	StartRest	XXXXX	n/a	n/a	29
585.9383333333334	0	n/a	351564	StopRest	XXXXX	n/a	n/a	29
585.9400000000001	0	UPPT001	351565	StartPractice	41324	n/a	n/a	30
586.5050000000000	0	n/a	351904	KeyDown	41324	4	Index	30
586.6833333333334	0	n/a	352011	KeyDown	41324	1	Little	30
586.8583333333333	0	n/a	352116	KeyDown	41324	3	Middle	30
586.9983333333333	0	n/a	352200	KeyDown	41324	2	Ring	30
587.2733333333334	0	n/a	352365	KeyDown	41324	4	Index	30
587.4166666666667	0	n/a	352451	KeyDown	41324	4	Index	30
587.5116666666667	0	n/a	352508	KeyDown	41324	1	Little	30
587.7083333333334	0	n/a	352626	KeyDown	41324	3	Middle	30
587.8366666666667	0	n/a	352703	KeyDown	41324	2	Ring	30
588.1100000000000	0	n/a	352867	KeyDown	41324	4	Index	30
588.2700000000000	0	n/a	352963	KeyDown	41324	4	Index	30
588.3950000000000	0	n/a	353038	KeyDown	41324	1	Little	30
588.5816666666667	0	n/a	353150	KeyDown	41324	3	Middle	30
588.7233333333334	0	n/a	353235	KeyDown	41324	2	Ring	30
588.9600000000000	0	n/a	353377	KeyDown	41324	4	Index	30
589.1150000000000	0	n/a	353470	KeyDown	41324	4	Index	30
589.2416666666667	0	n/a	353546	KeyDown	41324	1	Little	30
589.4416666666667	0	n/a	353666	KeyDown	41324	3	Middle	30
589.5783333333334	0	n/a	353748	KeyDown	41324	2	Ring	30
589.8183333333334	0	n/a	353892	KeyDown	41324	4	Index	30
589.9783333333334	0	n/a	353988	KeyDown	41324	4	Index	30
590.1050000000000	0	n/a	354064	KeyDown	41324	1	Little	30
590.3050000000001	0	n/a	354184	KeyDown	41324	3	Middle	30
590.4416666666667	0	n/a	354266	KeyDown	41324	2	Ring	30
590.7133333333334	0	n/a	354429	KeyDown	41324	4	Index	30
590.8650000000000	0	n/a	354520	KeyDown	41324	4	Index	30
590.9866666666667	0	n/a	354593	KeyDown	41324	1	Little	30
591.1900000000001	0	n/a	354715	KeyDown	41324	3	Middle	30
591.3583333333333	0	n/a	354816	KeyDown	41324	2	Ring	30
591.5916666666667	0	n/a	354956	KeyDown	41324	4	Index	30
591.7516666666667	0	n/a	355052	KeyDown	41324	4	Index	30
591.8700000000000	0	n/a	355123	KeyDown	41324	1	Little	30
592.0783333333334	0	n/a	355248	KeyDown	41324	3	Middle	30
592.2733333333334	0	n/a	355365	KeyDown	41324	2	Ring	30
592.5700000000001	0	n/a	355543	KeyDown	41324	4	Index	30
592.7366666666667	0	n/a	355643	KeyDown	41324	4	Index	30
592.8616666666667	0	n/a	355718	KeyDown	41324	1	Little	30
593.2233333333334	0	n/a	355935	KeyDown	41324	3	Middle	30
593.3800000000000	0	n/a	356029	KeyDown	41324	2	Ring	30
593.6200000000000	0	n/a	356173	KeyDown	41324	4	Index	30
593.7600000000000	0	n/a	356257	KeyDown	41324	4	Index	30
593.8683333333333	0	n/a	356322	KeyDown	41324	1	Little	30
594.0633333333334	0	n/a	356439	KeyDown	41324	3	Middle	30
594.1966666666667	0	n/a	356519	KeyDown	41324	2	Ring	30
594.4366666666667	0	n/a	356663	KeyDown	41324	4	Index	30
594.5733333333334	0	n/a	356745	KeyDown	41324	4	Index	30
594.6866666666667	0	n/a	356813	KeyDown	41324	1	Little	30
594.8766666666667	0	n/a	356927	KeyDown	41324	3	Middle	30
594.9916666666667	0	n/a	356996	KeyDown	41324	2	Ring	30
595.2616666666667	0	n/a	357158	KeyDown	41324	4	Index	30
595.4133333333334	0	n/a	357249	KeyDown	41324	4	Index	30
595.5116666666667	0	n/a	357308	KeyDown	41324	1	Little	30
595.6883333333334	0	n/a	357414	KeyDown	41324	3	Middle	30
595.8600000000000	0	n/a	357517	KeyDown	41324	2	Ring	30
595.9866666666667	0	n/a	357593	StopPractice	41324	n/a	n/a	30
595.9883333333333	0	n/a	357594	StartRest	XXXXX	n/a	n/a	30
606.0300000000001	0	n/a	363619	StopRest	XXXXX	n/a	n/a	30
606.0316666666668	0	UPPT001	363620	StartPractice	41324	n/a	n/a	31
606.4950000000000	0	n/a	363898	KeyDown	41324	4	Index	31
606.6333333333333	0	n/a	363981	KeyDown	41324	1	Little	31
606.8433333333334	0	n/a	364107	KeyDown	41324	3	Middle	31
606.9483333333334	0	n/a	364170	KeyDown	41324	2	Ring	31
607.1783333333334	0	n/a	364308	KeyDown	41324	4	Index	31
607.3183333333334	0	n/a	364392	KeyDown	41324	4	Index	31
607.4033333333334	0	n/a	364443	KeyDown	41324	1	Little	31
607.6333333333333	0	n/a	364581	KeyDown	41324	3	Middle	31
607.7483333333333	0	n/a	364650	KeyDown	41324	2	Ring	31
607.9700000000000	0	n/a	364783	KeyDown	41324	4	Index	31
608.1200000000000	0	n/a	364873	KeyDown	41324	4	Index	31
608.2116666666667	0	n/a	364928	KeyDown	41324	1	Little	31
608.3933333333333	0	n/a	365037	KeyDown	41324	3	Middle	31
608.5183333333333	0	n/a	365112	KeyDown	41324	2	Ring	31
608.7316666666667	0	n/a	365240	KeyDown	41324	4	Index	31
608.8600000000000	0	n/a	365317	KeyDown	41324	4	Index	31
608.9850000000000	0	n/a	365392	KeyDown	41324	1	Little	31
609.3433333333334	0	n/a	365607	KeyDown	41324	3	Middle	31
609.5200000000001	0	n/a	365713	KeyDown	41324	2	Ring	31
609.7383333333333	0	n/a	365844	KeyDown	41324	4	Index	31
609.8700000000000	0	n/a	365923	KeyDown	41324	4	Index	31
610.0183333333333	0	n/a	366012	KeyDown	41324	1	Little	31
610.2016666666667	0	n/a	366122	KeyDown	41324	3	Middle	31
610.3500000000000	0	n/a	366211	KeyDown	41324	2	Ring	31
610.6300000000000	0	n/a	366379	KeyDown	41324	4	Index	31
610.7700000000001	0	n/a	366463	KeyDown	41324	4	Index	31
610.9033333333334	0	n/a	366543	KeyDown	41324	1	Little	31
611.0916666666667	0	n/a	366656	KeyDown	41324	3	Middle	31
611.2050000000000	0	n/a	366724	KeyDown	41324	2	Ring	31
611.4550000000000	0	n/a	366874	KeyDown	41324	4	Index	31
611.5883333333334	0	n/a	366954	KeyDown	41324	4	Index	31
611.8083333333334	0	n/a	367086	KeyDown	41324	1	Little	31
612.1833333333334	0	n/a	367311	KeyDown	41324	3	Middle	31
612.3416666666667	0	n/a	367406	KeyDown	41324	2	Ring	31
612.6400000000000	0	n/a	367585	KeyDown	41324	4	Index	31
612.8116666666667	0	n/a	367688	KeyDown	41324	4	Index	31
612.9200000000001	0	n/a	367753	KeyDown	41324	1	Little	31
613.1500000000001	0	n/a	367891	KeyDown	41324	3	Middle	31
613.2733333333334	0	n/a	367965	KeyDown	41324	2	Ring	31
613.4966666666667	0	n/a	368099	KeyDown	41324	4	Index	31
613.6450000000001	0	n/a	368188	KeyDown	41324	4	Index	31
613.7600000000000	0	n/a	368257	KeyDown	41324	1	Little	31
613.9500000000000	0	n/a	368371	KeyDown	41324	3	Middle	31
614.0833333333334	0	n/a	368451	KeyDown	41324	2	Ring	31
614.3850000000000	0	n/a	368632	KeyDown	41324	4	Index	31
614.5333333333334	0	n/a	368721	KeyDown	41324	4	Index	31
614.6500000000001	0	n/a	368791	KeyDown	41324	1	Little	31
614.9733333333334	0	n/a	368985	KeyDown	41324	3	Middle	31
615.1183333333333	0	n/a	369072	KeyDown	41324	2	Ring	31
615.3516666666667	0	n/a	369212	KeyDown	41324	4	Index	31
615.5200000000001	0	n/a	369313	KeyDown	41324	4	Index	31
615.6166666666667	0	n/a	369371	KeyDown	41324	1	Little	31
615.8033333333334	0	n/a	369483	KeyDown	41324	3	Middle	31
615.9750000000000	0	n/a	369586	KeyDown	41324	2	Ring	31
616.0783333333334	0	n/a	369648	StopPractice	41324	n/a	n/a	31
616.0800000000000	0	n/a	369649	StartRest	XXXXX	n/a	n/a	31
626.1216666666667	0	n/a	375674	StopRest	XXXXX	n/a	n/a	31
626.1233333333333	0	UPPT001	375675	StartPractice	41324	n/a	n/a	32
626.5983333333334	0	n/a	375960	KeyDown	41324	4	Index	32
626.7266666666667	0	n/a	376037	KeyDown	41324	1	Little	32
626.9266666666667	0	n/a	376157	KeyDown	41324	3	Middle	32
627.0400000000001	0	n/a	376225	KeyDown	41324	2	Ring	32
627.2616666666667	0	n/a	376358	KeyDown	41324	4	Index	32
627.3916666666667	0	n/a	376436	KeyDown	41324	4	Index	32
627.4900000000000	0	n/a	376495	KeyDown	41324	1	Little	32
627.7716666666668	0	n/a	376664	KeyDown	41324	4	Index	32
627.9900000000000	0	n/a	376795	KeyDown	41324	3	Middle	32
628.2266666666667	0	n/a	376937	KeyDown	41324	2	Ring	32
629.0716666666667	0	n/a	377444	KeyDown	41324	4	Index	32
629.2250000000000	0	n/a	377536	KeyDown	41324	4	Index	32
629.3550000000000	0	n/a	377614	KeyDown	41324	1	Little	32
629.5800000000000	0	n/a	377749	KeyDown	41324	3	Middle	32
629.6933333333334	0	n/a	377817	KeyDown	41324	2	Ring	32
629.9066666666668	0	n/a	377945	KeyDown	41324	4	Index	32
630.0450000000001	0	n/a	378028	KeyDown	41324	4	Index	32
630.1366666666667	0	n/a	378083	KeyDown	41324	1	Little	32
630.3200000000001	0	n/a	378193	KeyDown	41324	3	Middle	32
630.4416666666667	0	n/a	378266	KeyDown	41324	2	Ring	32
630.6683333333334	0	n/a	378402	KeyDown	41324	4	Index	32
630.8016666666667	0	n/a	378482	KeyDown	41324	4	Index	32
630.9300000000001	0	n/a	378559	KeyDown	41324	1	Little	32
631.0883333333334	0	n/a	378654	KeyDown	41324	3	Middle	32
631.2200000000000	0	n/a	378733	KeyDown	41324	2	Ring	32
631.4316666666667	0	n/a	378860	KeyDown	41324	4	Index	32
631.7766666666668	0	n/a	379067	KeyDown	41324	4	Index	32
632.0133333333333	0	n/a	379209	KeyDown	41324	1	Little	32
632.1816666666667	0	n/a	379310	KeyDown	41324	3	Middle	32
632.3550000000000	0	n/a	379414	KeyDown	41324	2	Ring	32
632.5616666666667	0	n/a	379538	KeyDown	41324	4	Index	32
632.6916666666667	0	n/a	379616	KeyDown	41324	4	Index	32
632.8050000000001	0	n/a	379684	KeyDown	41324	1	Little	32
632.9783333333334	0	n/a	379788	KeyDown	41324	3	Middle	32
633.0716666666667	0	n/a	379844	KeyDown	41324	2	Ring	32
633.2983333333334	0	n/a	379980	KeyDown	41324	4	Index	32
633.4366666666667	0	n/a	380063	KeyDown	41324	4	Index	32
633.5166666666667	0	n/a	380111	KeyDown	41324	1	Little	32
633.6800000000001	0	n/a	380209	KeyDown	41324	3	Middle	32
633.8533333333334	0	n/a	380313	KeyDown	41324	2	Ring	32
634.1283333333333	0	n/a	380478	KeyDown	41324	4	Index	32
634.2600000000000	0	n/a	380557	KeyDown	41324	4	Index	32
634.3250000000000	0	n/a	380596	KeyDown	41324	1	Little	32
634.4566666666667	0	n/a	380675	KeyDown	41324	3	Middle	32
634.6400000000000	0	n/a	380785	KeyDown	41324	2	Ring	32
634.9066666666668	0	n/a	380945	KeyDown	41324	4	Index	32
635.0333333333334	0	n/a	381021	KeyDown	41324	4	Index	32
635.1833333333334	0	n/a	381111	KeyDown	41324	2	Ring	32
635.2716666666668	0	n/a	381164	KeyDown	41324	1	Little	32
635.4650000000000	0	n/a	381280	KeyDown	41324	3	Middle	32
635.6033333333334	0	n/a	381363	KeyDown	41324	2	Ring	32
636.1150000000000	0	n/a	381670	KeyDown	41324	4	Index	32
636.1700000000001	0	n/a	381703	StopPractice	41324	n/a	n/a	32
636.1716666666667	0	n/a	381704	StartRest	XXXXX	n/a	n/a	32
646.2116666666667	0	n/a	387728	StopRest	XXXXX	n/a	n/a	32
646.2133333333334	0	UPPT001	387729	StartPractice	41324	n/a	n/a	33
646.6766666666667	0	n/a	388007	KeyDown	41324	4	Index	33
646.8600000000000	0	n/a	388117	KeyDown	41324	4	Index	33
647.0800000000000	0	n/a	388249	KeyDown	41324	1	Little	33
647.2666666666667	0	n/a	388361	KeyDown	41324	3	Middle	33
647.3700000000000	0	n/a	388423	KeyDown	41324	2	Ring	33
647.9316666666667	0	n/a	388760	KeyDown	41324	4	Index	33
648.1516666666668	0	n/a	388892	KeyDown	41324	4	Index	33
648.3316666666667	0	n/a	389000	KeyDown	41324	1	Little	33
648.5050000000000	0	n/a	389104	KeyDown	41324	3	Middle	33
648.6616666666667	0	n/a	389198	KeyDown	41324	2	Ring	33
649.0466666666667	0	n/a	389429	KeyDown	41324	4	Index	33
649.2250000000000	0	n/a	389536	KeyDown	41324	4	Index	33
649.3950000000001	0	n/a	389638	KeyDown	41324	1	Little	33
649.5983333333334	0	n/a	389760	KeyDown	41324	3	Middle	33
649.7500000000000	0	n/a	389851	KeyDown	41324	2	Ring	33
649.9800000000000	0	n/a	389989	KeyDown	41324	4	Index	33
650.1450000000001	0	n/a	390088	KeyDown	41324	4	Index	33
650.2733333333334	0	n/a	390165	KeyDown	41324	1	Little	33
650.5016666666667	0	n/a	390302	KeyDown	41324	3	Middle	33
650.6500000000001	0	n/a	390391	KeyDown	41324	2	Ring	33
650.8516666666667	0	n/a	390512	KeyDown	41324	4	Index	33
651.0250000000001	0	n/a	390616	KeyDown	41324	4	Index	33
651.1433333333334	0	n/a	390687	KeyDown	41324	1	Little	33
651.4066666666668	0	n/a	390845	KeyDown	41324	3	Middle	33
651.5533333333334	0	n/a	390933	KeyDown	41324	2	Ring	33
651.7416666666667	0	n/a	391046	KeyDown	41324	4	Index	33
651.9150000000001	0	n/a	391150	KeyDown	41324	4	Index	33
652.0450000000001	0	n/a	391228	KeyDown	41324	1	Little	33
652.2800000000001	0	n/a	391369	KeyDown	41324	3	Middle	33
652.4016666666668	0	n/a	391442	KeyDown	41324	2	Ring	33
652.6216666666667	0	n/a	391574	KeyDown	41324	4	Index	33
652.7850000000001	0	n/a	391672	KeyDown	41324	4	Index	33
652.9200000000001	0	n/a	391753	KeyDown	41324	1	Little	33
653.0833333333334	0	n/a	391851	KeyDown	41324	3	Middle	33
653.2450000000000	0	n/a	391948	KeyDown	41324	2	Ring	33
653.5566666666667	0	n/a	392135	KeyDown	41324	4	Index	33
653.7283333333334	0	n/a	392238	KeyDown	41324	4	Index	33
653.8083333333334	0	n/a	392286	KeyDown	41324	1	Little	33
654.1100000000000	0	n/a	392467	KeyDown	41324	3	Middle	33
654.2316666666667	0	n/a	392540	KeyDown	41324	2	Ring	33
654.4583333333334	0	n/a	392676	KeyDown	41324	4	Index	33
654.6500000000001	0	n/a	392791	KeyDown	41324	4	Index	33
654.7566666666667	0	n/a	392855	KeyDown	41324	1	Little	33
654.9600000000000	0	n/a	392977	KeyDown	41324	3	Middle	33
655.1166666666667	0	n/a	393071	KeyDown	41324	2	Ring	33
655.3266666666667	0	n/a	393197	KeyDown	41324	4	Index	33
655.4800000000000	0	n/a	393289	KeyDown	41324	4	Index	33
655.6016666666667	0	n/a	393362	KeyDown	41324	1	Little	33
655.7983333333334	0	n/a	393480	KeyDown	41324	3	Middle	33
655.9300000000001	0	n/a	393559	KeyDown	41324	2	Ring	33
656.1766666666667	0	n/a	393707	KeyDown	41324	4	Index	33
656.2600000000000	0	n/a	393757	StopPractice	41324	n/a	n/a	33
656.2616666666667	0	n/a	393758	StartRest	XXXXX	n/a	n/a	33
666.3033333333334	0	n/a	399783	StopRest	XXXXX	n/a	n/a	33
666.3050000000001	0	UPPT001	399784	StartPractice	41324	n/a	n/a	34
666.7500000000000	0	n/a	400051	KeyDown	41324	4	Index	34
666.8983333333334	0	n/a	400140	KeyDown	41324	1	Little	34
667.0850000000000	0	n/a	400252	KeyDown	41324	3	Middle	34
667.1866666666667	0	n/a	400313	KeyDown	41324	2	Ring	34
667.4183333333334	0	n/a	400452	KeyDown	41324	4	Index	34
667.5516666666667	0	n/a	400532	KeyDown	41324	4	Index	34
667.6733333333334	0	n/a	400605	KeyDown	41324	1	Little	34
667.9683333333334	0	n/a	400782	KeyDown	41324	3	Middle	34
668.0983333333334	0	n/a	400860	KeyDown	41324	2	Ring	34
668.3116666666667	0	n/a	400988	KeyDown	41324	4	Index	34
668.4533333333334	0	n/a	401073	KeyDown	41324	4	Index	34
668.5683333333334	0	n/a	401142	KeyDown	41324	1	Little	34
668.7483333333333	0	n/a	401250	KeyDown	41324	3	Middle	34
668.8366666666667	0	n/a	401303	KeyDown	41324	2	Ring	34
669.0450000000001	0	n/a	401428	KeyDown	41324	4	Index	34
669.1916666666667	0	n/a	401516	KeyDown	41324	4	Index	34
669.2916666666667	0	n/a	401576	KeyDown	41324	1	Little	34
669.5033333333333	0	n/a	401703	KeyDown	41324	3	Middle	34
669.6166666666667	0	n/a	401771	KeyDown	41324	2	Ring	34
669.8183333333334	0	n/a	401892	KeyDown	41324	4	Index	34
669.9633333333334	0	n/a	401979	KeyDown	41324	4	Index	34
670.0633333333334	0	n/a	402039	KeyDown	41324	1	Little	34
670.2450000000000	0	n/a	402148	KeyDown	41324	3	Middle	34
670.3616666666667	0	n/a	402218	KeyDown	41324	2	Ring	34
670.6116666666667	0	n/a	402368	KeyDown	41324	4	Index	34
670.7416666666667	0	n/a	402446	KeyDown	41324	4	Index	34
670.8216666666667	0	n/a	402494	KeyDown	41324	1	Little	34
670.9983333333333	0	n/a	402600	KeyDown	41324	3	Middle	34
671.0066666666667	0	n/a	402605	KeyDown	41324	2	Ring	34
671.5050000000000	0	n/a	402904	KeyDown	41324	4	Index	34
671.6766666666667	0	n/a	403007	KeyDown	41324	4	Index	34
671.8233333333334	0	n/a	403095	KeyDown	41324	1	Little	34
672.0200000000001	0	n/a	403213	KeyDown	41324	3	Middle	34
672.1516666666668	0	n/a	403292	KeyDown	41324	2	Ring	34
672.3666666666667	0	n/a	403421	KeyDown	41324	4	Index	34
672.5150000000000	0	n/a	403510	KeyDown	41324	4	Index	34
672.6200000000000	0	n/a	403573	KeyDown	41324	1	Little	34
672.8233333333334	0	n/a	403695	KeyDown	41324	3	Middle	34
672.9633333333334	0	n/a	403779	KeyDown	41324	2	Ring	34
673.1716666666667	0	n/a	403904	KeyDown	41324	4	Index	34
673.2983333333334	0	n/a	403980	KeyDown	41324	4	Index	34
673.4000000000001	0	n/a	404041	KeyDown	41324	1	Little	34
673.5833333333334	0	n/a	404151	KeyDown	41324	3	Middle	34
673.7633333333333	0	n/a	404259	KeyDown	41324	2	Ring	34
673.9900000000000	0	n/a	404395	KeyDown	41324	4	Index	34
674.1416666666668	0	n/a	404486	KeyDown	41324	4	Index	34
674.2416666666667	0	n/a	404546	KeyDown	41324	1	Little	34
674.5233333333334	0	n/a	404715	KeyDown	41324	3	Middle	34
674.6050000000000	0	n/a	404764	KeyDown	41324	2	Ring	34
675.0516666666667	0	n/a	405032	KeyDown	41324	4	Index	34
675.2000000000000	0	n/a	405121	KeyDown	41324	4	Index	34
675.3233333333334	0	n/a	405195	KeyDown	41324	1	Little	34
675.6316666666667	0	n/a	405380	KeyDown	41324	3	Middle	34
675.7350000000000	0	n/a	405442	KeyDown	41324	2	Ring	34
675.9633333333334	0	n/a	405579	KeyDown	41324	4	Index	34
676.1433333333334	0	n/a	405687	KeyDown	41324	4	Index	34
676.3516666666667	0	n/a	405812	StopPractice	41324	n/a	n/a	34
676.3533333333334	0	n/a	405813	StartRest	XXXXX	n/a	n/a	34
686.3950000000001	0	n/a	411838	StopRest	XXXXX	n/a	n/a	34
686.3966666666668	0	UPPT001	411839	StartPractice	41324	n/a	n/a	35
686.8233333333334	0	n/a	412095	KeyDown	41324	4	Index	35
686.9900000000000	0	n/a	412195	KeyDown	41324	3	Middle	35
687.7166666666667	0	n/a	412631	KeyDown	41324	4	Index	35
687.9383333333334	0	n/a	412764	KeyDown	41324	1	Little	35
688.1133333333333	0	n/a	412869	KeyDown	41324	3	Middle	35
688.2100000000000	0	n/a	412927	KeyDown	41324	2	Ring	35
688.4466666666667	0	n/a	413069	KeyDown	41324	4	Index	35
688.6033333333334	0	n/a	413163	KeyDown	41324	4	Index	35
688.7133333333334	0	n/a	413229	KeyDown	41324	1	Little	35
688.9250000000001	0	n/a	413356	KeyDown	41324	3	Middle	35
689.0216666666668	0	n/a	413414	KeyDown	41324	2	Ring	35
689.2383333333333	0	n/a	413544	KeyDown	41324	4	Index	35
689.3800000000000	0	n/a	413629	KeyDown	41324	4	Index	35
689.5150000000001	0	n/a	413710	KeyDown	41324	1	Little	35
689.6916666666667	0	n/a	413816	KeyDown	41324	3	Middle	35
689.7850000000001	0	n/a	413872	KeyDown	41324	2	Ring	35
690.0250000000001	0	n/a	414016	KeyDown	41324	4	Index	35
690.1750000000001	0	n/a	414106	KeyDown	41324	4	Index	35
690.3433333333334	0	n/a	414207	KeyDown	41324	1	Little	35
690.6500000000001	0	n/a	414391	KeyDown	41324	3	Middle	35
690.7966666666667	0	n/a	414479	KeyDown	41324	2	Ring	35
691.1066666666667	0	n/a	414665	KeyDown	41324	4	Index	35
691.2450000000000	0	n/a	414748	KeyDown	41324	4	Index	35
691.3583333333333	0	n/a	414816	KeyDown	41324	1	Little	35
691.5783333333334	0	n/a	414948	KeyDown	41324	3	Middle	35
691.7083333333334	0	n/a	415026	KeyDown	41324	2	Ring	35
691.9533333333334	0	n/a	415173	KeyDown	41324	4	Index	35
692.1000000000000	0	n/a	415261	KeyDown	41324	4	Index	35
692.2300000000000	0	n/a	415339	KeyDown	41324	1	Little	35
692.4250000000001	0	n/a	415456	KeyDown	41324	3	Middle	35
692.5366666666667	0	n/a	415523	KeyDown	41324	2	Ring	35
692.7616666666667	0	n/a	415658	KeyDown	41324	4	Index	35
692.9216666666667	0	n/a	415754	KeyDown	41324	4	Index	35
693.0433333333334	0	n/a	415827	KeyDown	41324	1	Little	35
693.2416666666667	0	n/a	415946	KeyDown	41324	3	Middle	35
693.4033333333334	0	n/a	416043	KeyDown	41324	2	Ring	35
693.6583333333334	0	n/a	416196	KeyDown	41324	4	Index	35
693.7950000000001	0	n/a	416278	KeyDown	41324	4	Index	35
693.9433333333334	0	n/a	416367	KeyDown	41324	1	Little	35
694.1700000000001	0	n/a	416503	KeyDown	41324	3	Middle	35
694.2933333333334	0	n/a	416577	KeyDown	41324	2	Ring	35
694.5283333333334	0	n/a	416718	KeyDown	41324	4	Index	35
694.6883333333334	0	n/a	416814	KeyDown	41324	4	Index	35
694.8200000000001	0	n/a	416893	KeyDown	41324	1	Little	35
695.0033333333333	0	n/a	417003	KeyDown	41324	3	Middle	35
695.1300000000000	0	n/a	417079	KeyDown	41324	2	Ring	35
695.3750000000000	0	n/a	417226	KeyDown	41324	4	Index	35
695.5350000000001	0	n/a	417322	KeyDown	41324	4	Index	35
695.7266666666667	0	n/a	417437	KeyDown	41324	1	Little	35
696.0033333333333	0	n/a	417603	KeyDown	41324	3	Middle	35
696.1850000000001	0	n/a	417712	KeyDown	41324	2	Ring	35
696.4066666666668	0	n/a	417845	KeyDown	41324	4	Index	35
696.4433333333334	0	n/a	417867	StopPractice	41324	n/a	n/a	35
696.4450000000001	0	n/a	417868	StartRest	XXXXX	n/a	n/a	35
706.4866666666667	0	n/a	423893	StopRest	XXXXX	n/a	n/a	35
706.4883333333333	0	UPPT001	423894	StartPractice	41324	n/a	n/a	36
706.9366666666667	0	n/a	424163	KeyDown	41324	4	Index	36
707.0900000000000	0	n/a	424255	KeyDown	41324	1	Little	36
707.3150000000001	0	n/a	424390	KeyDown	41324	3	Middle	36
707.4566666666667	0	n/a	424475	KeyDown	41324	2	Ring	36
707.7450000000000	0	n/a	424648	KeyDown	41324	4	Index	36
707.8750000000000	0	n/a	424726	KeyDown	41324	4	Index	36
707.9716666666667	0	n/a	424784	KeyDown	41324	1	Little	36
708.1800000000001	0	n/a	424909	KeyDown	41324	3	Middle	36
708.2850000000001	0	n/a	424972	KeyDown	41324	2	Ring	36
708.5200000000001	0	n/a	425113	KeyDown	41324	4	Index	36
708.6500000000001	0	n/a	425191	KeyDown	41324	4	Index	36
708.7666666666668	0	n/a	425261	KeyDown	41324	1	Little	36
708.9666666666667	0	n/a	425381	KeyDown	41324	3	Middle	36
709.0600000000001	0	n/a	425437	KeyDown	41324	2	Ring	36
709.2766666666668	0	n/a	425567	KeyDown	41324	4	Index	36
709.4300000000001	0	n/a	425659	KeyDown	41324	4	Index	36
709.5450000000001	0	n/a	425728	KeyDown	41324	1	Little	36
709.7383333333333	0	n/a	425844	KeyDown	41324	3	Middle	36
709.8200000000001	0	n/a	425893	KeyDown	41324	2	Ring	36
710.0383333333334	0	n/a	426024	KeyDown	41324	4	Index	36
710.1950000000001	0	n/a	426118	KeyDown	41324	4	Index	36
710.3266666666667	0	n/a	426197	KeyDown	41324	1	Little	36
710.5633333333334	0	n/a	426339	KeyDown	41324	3	Middle	36
710.6750000000001	0	n/a	426406	KeyDown	41324	2	Ring	36
710.8850000000000	0	n/a	426532	KeyDown	41324	4	Index	36
711.0516666666667	0	n/a	426632	KeyDown	41324	4	Index	36
711.1483333333334	0	n/a	426690	KeyDown	41324	1	Little	36
711.3650000000000	0	n/a	426820	KeyDown	41324	3	Middle	36
711.4666666666667	0	n/a	426881	KeyDown	41324	2	Ring	36
711.6866666666667	0	n/a	427013	KeyDown	41324	4	Index	36
711.8266666666667	0	n/a	427097	KeyDown	41324	4	Index	36
711.9500000000000	0	n/a	427171	KeyDown	41324	1	Little	36
712.1433333333334	0	n/a	427287	KeyDown	41324	3	Middle	36
712.3166666666667	0	n/a	427391	KeyDown	41324	2	Ring	36
712.5383333333334	0	n/a	427524	KeyDown	41324	4	Index	36
712.6816666666667	0	n/a	427610	KeyDown	41324	4	Index	36
712.7816666666668	0	n/a	427670	KeyDown	41324	1	Little	36
713.1016666666667	0	n/a	427862	KeyDown	41324	3	Middle	36
713.2650000000001	0	n/a	427960	KeyDown	41324	2	Ring	36
713.5650000000001	0	n/a	428140	KeyDown	41324	4	Index	36
713.7400000000000	0	n/a	428245	KeyDown	41324	4	Index	36
713.8283333333334	0	n/a	428298	KeyDown	41324	1	Little	36
714.0366666666667	0	n/a	428423	KeyDown	41324	3	Middle	36
714.1650000000001	0	n/a	428500	KeyDown	41324	2	Ring	36
714.3900000000001	0	n/a	428635	KeyDown	41324	4	Index	36
714.5566666666667	0	n/a	428735	KeyDown	41324	4	Index	36
714.6600000000001	0	n/a	428797	KeyDown	41324	1	Little	36
715.0066666666667	0	n/a	429005	KeyDown	41324	3	Middle	36
715.1950000000001	0	n/a	429118	KeyDown	41324	2	Ring	36
715.4566666666667	0	n/a	429275	KeyDown	41324	4	Index	36
715.6350000000000	0	n/a	429382	KeyDown	41324	4	Index	36
715.7916666666667	0	n/a	429476	KeyDown	41324	1	Little	36
716.0333333333334	0	n/a	429621	KeyDown	41324	3	Middle	36
716.2083333333334	0	n/a	429726	KeyDown	41324	2	Ring	36
716.4766666666667	0	n/a	429887	KeyDown	41324	4	Index	36
716.5350000000001	0	n/a	429922	StopPractice	41324	n/a	n/a	36
716.5366666666667	0	n/a	429923	StartRest	XXXXX	n/a	n/a	36
726.5800000000000	0	n/a	435949	StopRest	XXXXX	n/a	n/a	36
