onset	duration	channel	onset_sample_idx	event_type	target_sequence	keypress_id	finger_label	trial_number
21.7266666666667	0	UPPT001	13037	StartPractice	41324	n/a	n/a	1
23.7883333333333	0	n/a	14274	KeyDown	41324	4	Index	1
24.4000000000000	0	n/a	14641	KeyDown	41324	1	Little	1
25.2333333333333	0	n/a	15141	KeyDown	41324	3	Middle	1
25.6783333333333	0	n/a	15408	KeyDown	41324	2	Ring	1
26.3166666666667	0	n/a	15791	KeyDown	41324	4	Index	1
26.9550000000000	0	n/a	16174	KeyDown	41324	4	Index	1
27.4583333333333	0	n/a	16476	KeyDown	41324	1	Little	1
28.0400000000000	0	n/a	16825	KeyDown	41324	3	Middle	1
28.4916666666667	0	n/a	17096	KeyDown	41324	2	Ring	1
29.0250000000000	0	n/a	17416	KeyDown	41324	4	Index	1
29.5100000000000	0	n/a	17707	KeyDown	41324	4	Index	1
30.0366666666667	0	n/a	18023	KeyDown	41324	1	Little	1
30.5583333333333	0	n/a	18336	KeyDown	41324	3	Middle	1
30.9900000000000	0	n/a	18595	KeyDown	41324	2	Ring	1
31.5183333333333	0	n/a	18912	KeyDown	41324	4	Index	1
31.7650000000000	0	n/a	19060	StopPractice	41324	n/a	n/a	1
31.7666666666667	0	n/a	19061	StartRest	XXXXX	n/a	n/a	1
41.8016666666667	0	n/a	25082	StopRest	XXXXX	n/a	n/a	1
41.8033333333333	0	UPPT001	25083	StartPractice	41324	n/a	n/a	2
42.6116666666667	0	n/a	25568	KeyDown	41324	4	Index	2
43.1116666666667	0	n/a	25868	KeyDown	41324	1	Little	2
43.6183333333333	0	n/a	26172	KeyDown	41324	3	Middle	2
44.1016666666667	0	n/a	26462	KeyDown	41324	2	Ring	2
44.7200000000000	0	n/a	26833	KeyDown	41324	4	Index	2
45.2550000000000	0	n/a	27154	KeyDown	41324	4	Index	2
45.7300000000000	0	n/a	27439	KeyDown	41324	1	Little	2
46.3566666666667	0	n/a	27815	KeyDown	41324	3	Middle	2
46.9683333333333	0	n/a	28182	KeyDown	41324	2	Ring	2
47.5083333333333	0	n/a	28506	KeyDown	41324	4	Index	2
48.0750000000000	0	n/a	28846	KeyDown	41324	4	Index	2
48.5666666666667	0	n/a	29141	KeyDown	41324	1	Little	2
49.4600000000000	0	n/a	29677	KeyDown	41324	3	Middle	2
49.9100000000000	0	n/a	29947	KeyDown	41324	2	Ring	2
50.5116666666667	0	n/a	30308	KeyDown	41324	4	Index	2
51.0500000000000	0	n/a	30631	KeyDown	41324	4	Index	2
51.4983333333333	0	n/a	30900	KeyDown	41324	1	Little	2
51.8416666666667	0	n/a	31106	StopPractice	41324	n/a	n/a	2
51.8433333333333	0	n/a	31107	StartRest	XXXXX	n/a	n/a	2
61.8750000000000	0	n/a	37126	StopRest	XXXXX	n/a	n/a	2
61.8766666666667	0	UPPT001	37127	StartPractice	41324	n/a	n/a	3
62.3166666666667	0	n/a	37391	KeyDown	41324	4	Index	3
62.7733333333333	0	n/a	37665	KeyDown	41324	1	Little	3
63.4150000000000	0	n/a	38050	KeyDown	41324	3	Middle	3
63.8600000000000	0	n/a	38317	KeyDown	41324	2	Ring	3
64.3500000000000	0	n/a	38611	KeyDown	41324	4	Index	3
64.7050000000000	0	n/a	38824	KeyDown	41324	4	Index	3
65.1750000000000	0	n/a	39106	KeyDown	41324	1	Little	3
65.7000000000000	0	n/a	39421	KeyDown	41324	3	Middle	3
66.1400000000000	0	n/a	39685	KeyDown	41324	2	Ring	3
66.6250000000000	0	n/a	39976	KeyDown	41324	4	Index	3
67.0800000000000	0	n/a	40249	KeyDown	41324	4	Index	3
67.4883333333333	0	n/a	40494	KeyDown	41324	1	Little	3
67.9883333333333	0	n/a	40794	KeyDown	41324	3	Middle	3
68.4333333333333	0	n/a	41061	KeyDown	41324	2	Ring	3
68.9183333333333	0	n/a	41352	KeyDown	41324	4	Index	3
69.2900000000000	0	n/a	41575	KeyDown	41324	4	Index	3
69.7983333333333	0	n/a	41880	KeyDown	41324	1	Little	3
70.3116666666667	0	n/a	42188	KeyDown	41324	3	Middle	3
70.7550000000000	0	n/a	42454	KeyDown	41324	2	Ring	3
71.2183333333333	0	n/a	42732	KeyDown	41324	4	Index	3
71.5883333333333	0	n/a	42954	KeyDown	41324	4	Index	3
71.9150000000000	0	n/a	43150	StopPractice	41324	n/a	n/a	3
71.9166666666667	0	n/a	43151	StartRest	XXXXX	n/a	n/a	3
81.9500000000000	0	n/a	49171	StopRest	XXXXX	n/a	n/a	3
81.9516666666667	0	UPPT001	49172	StartPractice	41324	n/a	n/a	4
82.5333333333333	0	n/a	49521	KeyDown	41324	4	Index	4
82.9850000000000	0	n/a	49792	KeyDown	41324	1	Little	4
83.5950000000000	0	n/a	50158	KeyDown	41324	3	Middle	4
84.0250000000000	0	n/a	50416	KeyDown	41324	2	Ring	4
84.4483333333333	0	n/a	50670	KeyDown	41324	4	Index	4
84.8900000000000	0	n/a	50935	KeyDown	41324	4	Index	4
85.3200000000000	0	n/a	51193	KeyDown	41324	1	Little	4
86.0400000000000	0	n/a	51625	KeyDown	41324	3	Middle	4
86.4083333333333	0	n/a	51846	KeyDown	41324	2	Ring	4
86.8283333333333	0	n/a	52098	KeyDown	41324	4	Index	4
87.1616666666667	0	n/a	52298	KeyDown	41324	4	Index	4
87.5600000000000	0	n/a	52537	KeyDown	41324	1	Little	4
88.0816666666667	0	n/a	52850	KeyDown	41324	3	Middle	4
88.4950000000000	0	n/a	53098	KeyDown	41324	2	Ring	4
88.8750000000000	0	n/a	53326	KeyDown	41324	4	Index	4
89.1900000000000	0	n/a	53515	KeyDown	41324	4	Index	4
89.5500000000000	0	n/a	53731	KeyDown	41324	1	Little	4
89.9900000000000	0	n/a	53995	KeyDown	41324	3	Middle	4
90.3350000000000	0	n/a	54202	KeyDown	41324	2	Ring	4
90.7300000000000	0	n/a	54439	KeyDown	41324	4	Index	4
91.0533333333333	0	n/a	54633	KeyDown	41324	4	Index	4
91.4300000000000	0	n/a	54859	KeyDown	41324	1	Little	4
91.9433333333333	0	n/a	55167	KeyDown	41324	3	Middle	4
91.9900000000000	0	n/a	55195	StopPractice	41324	n/a	n/a	4
91.9916666666667	0	n/a	55196	StartRest	XXXXX	n/a	n/a	4
102.0250000000000	0	n/a	61216	StopRest	XXXXX	n/a	n/a	4
102.0266666666667	0	UPPT001	61217	StartPractice	41324	n/a	n/a	5
102.4350000000000	0	n/a	61462	KeyDown	41324	4	Index	5
102.9666666666667	0	n/a	61781	KeyDown	41324	1	Little	5
103.4883333333333	0	n/a	62094	KeyDown	41324	3	Middle	5
103.8750000000000	0	n/a	62326	KeyDown	41324	2	Ring	5
104.3233333333333	0	n/a	62595	KeyDown	41324	4	Index	5
104.6800000000000	0	n/a	62809	KeyDown	41324	4	Index	5
105.0783333333333	0	n/a	63048	KeyDown	41324	1	Little	5
105.5700000000000	0	n/a	63343	KeyDown	41324	3	Middle	5
105.9483333333333	0	n/a	63570	KeyDown	41324	2	Ring	5
106.3233333333333	0	n/a	63795	KeyDown	41324	4	Index	5
106.7000000000000	0	n/a	64021	KeyDown	41324	4	Index	5
107.1033333333333	0	n/a	64263	KeyDown	41324	1	Little	5
107.5383333333333	0	n/a	64524	KeyDown	41324	3	Middle	5
107.9583333333333	0	n/a	64776	KeyDown	41324	2	Ring	5
108.3133333333333	0	n/a	64989	KeyDown	41324	4	Index	5
108.6316666666667	0	n/a	65180	KeyDown	41324	4	Index	5
108.9700000000000	0	n/a	65383	KeyDown	41324	1	Little	5
109.4633333333333	0	n/a	65679	KeyDown	41324	3	Middle	5
109.8133333333333	0	n/a	65889	KeyDown	41324	2	Ring	5
110.1866666666667	0	n/a	66113	KeyDown	41324	4	Index	5
110.4766666666667	0	n/a	66287	KeyDown	41324	4	Index	5
110.8116666666667	0	n/a	66488	KeyDown	41324	1	Little	5
111.2416666666667	0	n/a	66746	KeyDown	41324	3	Middle	5
111.5300000000000	0	n/a	66919	KeyDown	41324	2	Ring	5
111.9200000000000	0	n/a	67153	KeyDown	41324	4	Index	5
112.0650000000000	0	n/a	67240	StopPractice	41324	n/a	n/a	5
112.0666666666667	0	n/a	67241	StartRest	XXXXX	n/a	n/a	5
122.1000000000000	0	n/a	73261	StopRest	XXXXX	n/a	n/a	5
122.1016666666667	0	UPPT001	73262	StartPractice	41324	n/a	n/a	6
122.6033333333333	0	n/a	73563	KeyDown	41324	4	Index	6
123.0083333333333	0	n/a	73806	KeyDown	41324	1	Little	6
123.4300000000000	0	n/a	74059	KeyDown	41324	3	Middle	6
123.7600000000000	0	n/a	74257	KeyDown	41324	2	Ring	6
124.2150000000000	0	n/a	74530	KeyDown	41324	4	Index	6
124.7583333333333	0	n/a	74856	KeyDown	41324	4	Index	6
125.1383333333333	0	n/a	75084	KeyDown	41324	1	Little	6
125.6050000000000	0	n/a	75364	KeyDown	41324	3	Middle	6
126.0550000000000	0	n/a	75634	KeyDown	41324	2	Ring	6
126.7066666666667	0	n/a	76025	KeyDown	41324	4	Index	6
127.1533333333333	0	n/a	76293	KeyDown	41324	4	Index	6
127.5333333333333	0	n/a	76521	KeyDown	41324	1	Little	6
127.9733333333333	0	n/a	76785	KeyDown	41324	3	Middle	6
128.3183333333333	0	n/a	76992	KeyDown	41324	2	Ring	6
128.7283333333334	0	n/a	77238	KeyDown	41324	4	Index	6
129.1266666666667	0	n/a	77477	KeyDown	41324	4	Index	6
129.4750000000000	0	n/a	77686	KeyDown	41324	1	Little	6
129.8300000000000	0	n/a	77899	KeyDown	41324	3	Middle	6
130.1566666666667	0	n/a	78095	KeyDown	41324	2	Ring	6
130.5483333333333	0	n/a	78330	KeyDown	41324	4	Index	6
130.9300000000000	0	n/a	78559	KeyDown	41324	4	Index	6
131.2933333333334	0	n/a	78777	KeyDown	41324	1	Little	6
131.7133333333333	0	n/a	79029	KeyDown	41324	3	Middle	6
132.0933333333333	0	n/a	79257	KeyDown	41324	2	Ring	6
132.1400000000000	0	n/a	79285	StopPractice	41324	n/a	n/a	6
132.1416666666667	0	n/a	79286	StartRest	XXXXX	n/a	n/a	6
142.1750000000000	0	n/a	85306	StopRest	XXXXX	n/a	n/a	6
142.1766666666667	0	UPPT001	85307	StartPractice	41324	n/a	n/a	7
142.7116666666667	0	n/a	85628	KeyDown	41324	4	Index	7
143.1300000000000	0	n/a	85879	KeyDown	41324	1	Little	7
143.5433333333334	0	n/a	86127	KeyDown	41324	3	Middle	7
144.0000000000000	0	n/a	86401	KeyDown	41324	2	Ring	7
144.3683333333333	0	n/a	86622	KeyDown	41324	4	Index	7
144.7033333333333	0	n/a	86823	KeyDown	41324	4	Index	7
145.1100000000000	0	n/a	87067	KeyDown	41324	1	Little	7
145.4750000000000	0	n/a	87286	KeyDown	41324	3	Middle	7
145.8500000000000	0	n/a	87511	KeyDown	41324	2	Ring	7
146.3350000000000	0	n/a	87802	KeyDown	41324	4	Index	7
146.7033333333333	0	n/a	88023	KeyDown	41324	4	Index	7
147.0466666666667	0	n/a	88229	KeyDown	41324	1	Little	7
147.4150000000000	0	n/a	88450	KeyDown	41324	3	Middle	7
147.8116666666667	0	n/a	88688	KeyDown	41324	2	Ring	7
148.2566666666667	0	n/a	88955	KeyDown	41324	4	Index	7
148.5866666666667	0	n/a	89153	KeyDown	41324	4	Index	7
148.9166666666667	0	n/a	89351	KeyDown	41324	1	Little	7
149.3016666666667	0	n/a	89582	KeyDown	41324	3	Middle	7
149.6633333333334	0	n/a	89799	KeyDown	41324	2	Ring	7
150.0366666666667	0	n/a	90023	KeyDown	41324	4	Index	7
150.3183333333334	0	n/a	90192	KeyDown	41324	4	Index	7
150.8450000000000	0	n/a	90508	KeyDown	41324	1	Little	7
151.2183333333333	0	n/a	90732	KeyDown	41324	3	Middle	7
151.5566666666667	0	n/a	90935	KeyDown	41324	2	Ring	7
151.9716666666667	0	n/a	91184	KeyDown	41324	4	Index	7
152.2150000000000	0	n/a	91330	StopPractice	41324	n/a	n/a	7
152.2166666666667	0	n/a	91331	StartRest	XXXXX	n/a	n/a	7
162.2500000000000	0	n/a	97351	StopRest	XXXXX	n/a	n/a	7
162.2516666666667	0	UPPT001	97352	StartPractice	41324	n/a	n/a	8
162.9483333333334	0	n/a	97770	KeyDown	41324	4	Index	8
163.3150000000000	0	n/a	97990	KeyDown	41324	1	Little	8
163.7616666666667	0	n/a	98258	KeyDown	41324	3	Middle	8
164.1666666666667	0	n/a	98501	KeyDown	41324	2	Ring	8
165.0916666666667	0	n/a	99056	KeyDown	41324	4	Index	8
165.3966666666667	0	n/a	99239	KeyDown	41324	4	Index	8
165.7200000000000	0	n/a	99433	KeyDown	41324	1	Little	8
166.3666666666667	0	n/a	99821	KeyDown	41324	3	Middle	8
166.7833333333333	0	n/a	100071	KeyDown	41324	2	Ring	8
167.1916666666667	0	n/a	100316	KeyDown	41324	4	Index	8
167.5133333333333	0	n/a	100509	KeyDown	41324	4	Index	8
167.8833333333334	0	n/a	100731	KeyDown	41324	1	Little	8
168.5800000000000	0	n/a	101149	KeyDown	41324	3	Middle	8
168.9983333333333	0	n/a	101400	KeyDown	41324	2	Ring	8
169.3616666666667	0	n/a	101618	KeyDown	41324	4	Index	8
169.6283333333333	0	n/a	101778	KeyDown	41324	4	Index	8
169.9233333333333	0	n/a	101955	KeyDown	41324	1	Little	8
170.3566666666667	0	n/a	102215	KeyDown	41324	3	Middle	8
170.7233333333334	0	n/a	102435	KeyDown	41324	2	Ring	8
171.0550000000000	0	n/a	102634	KeyDown	41324	4	Index	8
171.3250000000000	0	n/a	102796	KeyDown	41324	4	Index	8
171.6133333333333	0	n/a	102969	KeyDown	41324	1	Little	8
171.9750000000000	0	n/a	103186	KeyDown	41324	3	Middle	8
172.2900000000000	0	n/a	103375	StopPractice	41324	n/a	n/a	8
172.2916666666667	0	n/a	103376	StartRest	XXXXX	n/a	n/a	8
182.3250000000000	0	n/a	109396	StopRest	XXXXX	n/a	n/a	8
182.3266666666667	0	UPPT001	109397	StartPractice	41324	n/a	n/a	9
182.9750000000000	0	n/a	109786	KeyDown	41324	4	Index	9
183.3900000000000	0	n/a	110035	KeyDown	41324	1	Little	9
183.8850000000000	0	n/a	110332	KeyDown	41324	3	Middle	9
184.2800000000000	0	n/a	110569	KeyDown	41324	2	Ring	9
184.6833333333333	0	n/a	110811	KeyDown	41324	4	Index	9
185.0333333333333	0	n/a	111021	KeyDown	41324	4	Index	9
185.4016666666667	0	n/a	111242	KeyDown	41324	1	Little	9
185.8233333333334	0	n/a	111495	KeyDown	41324	3	Middle	9
186.2450000000000	0	n/a	111748	KeyDown	41324	2	Ring	9
186.6483333333333	0	n/a	111990	KeyDown	41324	4	Index	9
187.0200000000000	0	n/a	112213	KeyDown	41324	4	Index	9
187.3483333333334	0	n/a	112410	KeyDown	41324	1	Little	9
187.7200000000000	0	n/a	112633	KeyDown	41324	3	Middle	9
188.1633333333334	0	n/a	112899	KeyDown	41324	2	Ring	9
188.5916666666667	0	n/a	113156	KeyDown	41324	4	Index	9
188.9200000000000	0	n/a	113353	KeyDown	41324	4	Index	9
189.3650000000000	0	n/a	113620	KeyDown	41324	1	Little	9
189.8433333333333	0	n/a	113907	KeyDown	41324	3	Middle	9
190.2666666666667	0	n/a	114161	KeyDown	41324	2	Ring	9
190.6583333333333	0	n/a	114396	KeyDown	41324	4	Index	9
190.9650000000000	0	n/a	114580	KeyDown	41324	4	Index	9
191.3150000000000	0	n/a	114790	KeyDown	41324	1	Little	9
191.7200000000000	0	n/a	115033	KeyDown	41324	3	Middle	9
192.0950000000000	0	n/a	115258	KeyDown	41324	2	Ring	9
192.3650000000000	0	n/a	115420	StopPractice	41324	n/a	n/a	9
192.3666666666667	0	n/a	115421	StartRest	XXXXX	n/a	n/a	9
202.4016666666667	0	n/a	121442	StopRest	XXXXX	n/a	n/a	9
