onset	duration	channel	onset_sample_idx	event_type	target_sequence	keypress_id	finger_label	trial_number
16.5666666666667	0	UPPT001	9941	StartPractice	41324	n/a	n/a	1
20.2383333333333	0	n/a	12144	KeyDown	41324	4	Index	1
21.1683333333333	0	n/a	12702	KeyDown	41324	1	Little	1
23.1550000000000	0	n/a	13894	KeyDown	41324	3	Middle	1
23.7250000000000	0	n/a	14236	KeyDown	41324	2	Ring	1
24.6933333333333	0	n/a	14817	KeyDown	41324	4	Index	1
26.6050000000000	0	n/a	15964	StopPractice	41324	n/a	n/a	1
26.6066666666667	0	n/a	15965	StartRest	XXXXX	n/a	n/a	1
36.6366666666667	0	n/a	21983	StopRest	XXXXX	n/a	n/a	1
36.6383333333333	0	UPPT001	21984	StartPractice	41324	n/a	n/a	2
41.0316666666667	0	n/a	24620	KeyDown	41324	4	Index	2
42.8750000000000	0	n/a	25726	KeyDown	41324	1	Little	2
43.6216666666667	0	n/a	26174	KeyDown	41324	3	Middle	2
44.3400000000000	0	n/a	26605	KeyDown	41324	2	Ring	2
45.1800000000000	0	n/a	27109	KeyDown	41324	4	Index	2
46.6766666666667	0	n/a	28007	StopPractice	41324	n/a	n/a	2
46.6783333333333	0	n/a	28008	StartRest	XXXXX	n/a	n/a	2
56.7100000000000	0	n/a	34027	StopRest	XXXXX	n/a	n/a	2
56.7116666666667	0	UPPT001	34028	StartPractice	41324	n/a	n/a	3
58.3100000000000	0	n/a	34987	KeyDown	41324	4	Index	3
59.0966666666667	0	n/a	35459	KeyDown	41324	1	Little	3
61.5516666666667	0	n/a	36932	KeyDown	41324	3	Middle	3
62.2066666666667	0	n/a	37325	KeyDown	41324	2	Ring	3
63.0966666666667	0	n/a	37859	KeyDown	41324	4	Index	3
66.7500000000000	0	n/a	40051	StopPractice	41324	n/a	n/a	3
66.7516666666667	0	n/a	40052	StartRest	XXXXX	n/a	n/a	3
76.7850000000000	0	n/a	46072	StopRest	XXXXX	n/a	n/a	3
76.7866666666667	0	UPPT001	46073	StartPractice	41324	n/a	n/a	4
77.3633333333333	0	n/a	46419	KeyDown	41324	4	Index	4
78.5633333333333	0	n/a	47139	KeyDown	41324	1	Little	4
80.6750000000000	0	n/a	48406	KeyDown	41324	3	Middle	4
81.5516666666667	0	n/a	48932	KeyDown	41324	2	Ring	4
82.3816666666667	0	n/a	49430	KeyDown	41324	4	Index	4
86.8250000000000	0	n/a	52096	StopPractice	41324	n/a	n/a	4
86.8266666666667	0	n/a	52097	StartRest	XXXXX	n/a	n/a	4
96.8600000000000	0	n/a	58117	StopRest	XXXXX	n/a	n/a	4
96.8616666666667	0	UPPT001	58118	StartPractice	41324	n/a	n/a	5
97.5983333333333	0	n/a	58560	KeyDown	41324	4	Index	5
98.0750000000000	0	n/a	58846	KeyDown	41324	1	Little	5
98.7833333333333	0	n/a	59271	KeyDown	41324	3	Middle	5
99.3566666666667	0	n/a	59615	KeyDown	41324	2	Ring	5
100.2000000000000	0	n/a	60121	KeyDown	41324	4	Index	5
101.4200000000000	0	n/a	60853	KeyDown	41324	4	Index	5
101.8383333333333	0	n/a	61104	KeyDown	41324	1	Little	5
102.5383333333333	0	n/a	61524	KeyDown	41324	3	Middle	5
103.3366666666667	0	n/a	62003	KeyDown	41324	2	Ring	5
104.7400000000000	0	n/a	62845	KeyDown	41324	4	Index	5
106.0583333333333	0	n/a	63636	KeyDown	41324	4	Index	5
106.9000000000000	0	n/a	64141	StopPractice	41324	n/a	n/a	5
106.9016666666667	0	n/a	64142	StartRest	XXXXX	n/a	n/a	5
116.9350000000000	0	n/a	70162	StopRest	XXXXX	n/a	n/a	5
116.9366666666667	0	UPPT001	70163	StartPractice	41324	n/a	n/a	6
117.5983333333333	0	n/a	70560	KeyDown	41324	4	Index	6
118.0800000000000	0	n/a	70849	KeyDown	41324	1	Little	6
118.7700000000000	0	n/a	71263	KeyDown	41324	3	Middle	6
119.2533333333333	0	n/a	71553	KeyDown	41324	2	Ring	6
119.8150000000000	0	n/a	71890	KeyDown	41324	4	Index	6
120.5566666666667	0	n/a	72335	KeyDown	41324	4	Index	6
120.9300000000000	0	n/a	72559	KeyDown	41324	1	Little	6
121.5533333333333	0	n/a	72933	KeyDown	41324	3	Middle	6
122.0033333333333	0	n/a	73203	KeyDown	41324	2	Ring	6
122.5366666666667	0	n/a	73523	KeyDown	41324	4	Index	6
123.2383333333333	0	n/a	73944	KeyDown	41324	4	Index	6
123.5850000000000	0	n/a	74152	KeyDown	41324	1	Little	6
124.0750000000000	0	n/a	74446	KeyDown	41324	3	Middle	6
124.5883333333333	0	n/a	74754	KeyDown	41324	2	Ring	6
125.1033333333333	0	n/a	75063	KeyDown	41324	4	Index	6
125.8266666666667	0	n/a	75497	KeyDown	41324	4	Index	6
126.4833333333333	0	n/a	75891	KeyDown	41324	1	Little	6
126.9750000000000	0	n/a	76186	StopPractice	41324	n/a	n/a	6
126.9766666666667	0	n/a	76187	StartRest	XXXXX	n/a	n/a	6
137.0100000000000	0	n/a	82207	StopRest	XXXXX	n/a	n/a	6
137.0116666666667	0	UPPT001	82208	StartPractice	41324	n/a	n/a	7
137.7783333333333	0	n/a	82668	KeyDown	41324	4	Index	7
138.2083333333333	0	n/a	82926	KeyDown	41324	1	Little	7
138.8600000000000	0	n/a	83317	KeyDown	41324	3	Middle	7
139.3350000000000	0	n/a	83602	KeyDown	41324	2	Ring	7
140.0266666666667	0	n/a	84017	KeyDown	41324	4	Index	7
140.7083333333333	0	n/a	84426	KeyDown	41324	4	Index	7
141.0183333333333	0	n/a	84612	KeyDown	41324	1	Little	7
141.5050000000000	0	n/a	84904	KeyDown	41324	3	Middle	7
141.9450000000000	0	n/a	85168	KeyDown	41324	2	Ring	7
142.4100000000000	0	n/a	85447	KeyDown	41324	4	Index	7
143.1566666666667	0	n/a	85895	KeyDown	41324	4	Index	7
143.4366666666667	0	n/a	86063	KeyDown	41324	1	Little	7
143.9733333333333	0	n/a	86385	KeyDown	41324	3	Middle	7
144.2900000000000	0	n/a	86575	KeyDown	41324	2	Ring	7
144.5883333333333	0	n/a	86754	KeyDown	41324	4	Index	7
145.0533333333333	0	n/a	87033	KeyDown	41324	4	Index	7
145.3650000000000	0	n/a	87220	KeyDown	41324	1	Little	7
145.7916666666667	0	n/a	87476	KeyDown	41324	3	Middle	7
146.1083333333333	0	n/a	87666	KeyDown	41324	2	Ring	7
146.5583333333333	0	n/a	87936	KeyDown	41324	4	Index	7
147.0500000000000	0	n/a	88231	StopPractice	41324	n/a	n/a	7
147.0516666666667	0	n/a	88232	StartRest	XXXXX	n/a	n/a	7
157.0850000000000	0	n/a	94252	StopRest	XXXXX	n/a	n/a	7
157.0866666666667	0	UPPT001	94253	StartPractice	41324	n/a	n/a	8
157.7450000000000	0	n/a	94648	KeyDown	41324	4	Index	8
158.1750000000000	0	n/a	94906	KeyDown	41324	1	Little	8
158.7016666666667	0	n/a	95222	KeyDown	41324	3	Middle	8
159.1350000000000	0	n/a	95482	KeyDown	41324	2	Ring	8
159.5983333333334	0	n/a	95760	KeyDown	41324	4	Index	8
160.1550000000000	0	n/a	96094	KeyDown	41324	4	Index	8
160.4400000000000	0	n/a	96265	KeyDown	41324	1	Little	8
161.0750000000000	0	n/a	96646	KeyDown	41324	3	Middle	8
161.5200000000000	0	n/a	96913	KeyDown	41324	2	Ring	8
162.0166666666667	0	n/a	97211	KeyDown	41324	4	Index	8
162.6750000000000	0	n/a	97606	KeyDown	41324	4	Index	8
162.9800000000000	0	n/a	97789	KeyDown	41324	1	Little	8
163.4616666666667	0	n/a	98078	KeyDown	41324	3	Middle	8
163.8566666666667	0	n/a	98315	KeyDown	41324	2	Ring	8
164.6983333333334	0	n/a	98820	KeyDown	41324	4	Index	8
165.3033333333333	0	n/a	99183	KeyDown	41324	4	Index	8
165.5533333333333	0	n/a	99333	KeyDown	41324	1	Little	8
165.9800000000000	0	n/a	99589	KeyDown	41324	3	Middle	8
166.2333333333333	0	n/a	99741	KeyDown	41324	2	Ring	8
166.7266666666667	0	n/a	100037	KeyDown	41324	4	Index	8
167.1250000000000	0	n/a	100276	StopPractice	41324	n/a	n/a	8
167.1266666666667	0	n/a	100277	StartRest	XXXXX	n/a	n/a	8
177.1600000000000	0	n/a	106297	StopRest	XXXXX	n/a	n/a	8
177.1616666666667	0	UPPT001	106298	StartPractice	41324	n/a	n/a	9
177.8033333333333	0	n/a	106683	KeyDown	41324	4	Index	9
178.1283333333334	0	n/a	106878	KeyDown	41324	1	Little	9
178.5500000000000	0	n/a	107131	KeyDown	41324	3	Middle	9
178.9000000000000	0	n/a	107341	KeyDown	41324	2	Ring	9
179.2933333333334	0	n/a	107577	KeyDown	41324	4	Index	9
179.7133333333333	0	n/a	107829	KeyDown	41324	4	Index	9
179.9516666666667	0	n/a	107972	KeyDown	41324	1	Little	9
180.4850000000000	0	n/a	108292	KeyDown	41324	3	Middle	9
180.9333333333333	0	n/a	108561	KeyDown	41324	2	Ring	9
181.3016666666667	0	n/a	108782	KeyDown	41324	4	Index	9
181.7233333333334	0	n/a	109035	KeyDown	41324	4	Index	9
181.9616666666667	0	n/a	109178	KeyDown	41324	1	Little	9
182.3583333333333	0	n/a	109416	KeyDown	41324	3	Middle	9
182.7250000000000	0	n/a	109636	KeyDown	41324	2	Ring	9
183.1233333333333	0	n/a	109875	KeyDown	41324	4	Index	9
183.6750000000000	0	n/a	110206	KeyDown	41324	4	Index	9
183.9200000000000	0	n/a	110353	KeyDown	41324	1	Little	9
184.3666666666667	0	n/a	110621	KeyDown	41324	3	Middle	9
184.6433333333333	0	n/a	110787	KeyDown	41324	2	Ring	9
184.9183333333334	0	n/a	110952	KeyDown	41324	4	Index	9
185.7916666666667	0	n/a	111476	KeyDown	41324	4	Index	9
186.1116666666667	0	n/a	111668	KeyDown	41324	1	Little	9
186.6750000000000	0	n/a	112006	KeyDown	41324	3	Middle	9
186.9650000000000	0	n/a	112180	KeyDown	41324	2	Ring	9
187.2000000000000	0	n/a	112321	StopPractice	41324	n/a	n/a	9
187.2016666666667	0	n/a	112322	StartRest	XXXXX	n/a	n/a	9
197.2333333333333	0	n/a	118341	StopRest	XXXXX	n/a	n/a	9
197.2350000000000	0	UPPT001	118342	StartPractice	41324	n/a	n/a	10
197.8250000000000	0	n/a	118696	KeyDown	41324	4	Index	10
198.1666666666667	0	n/a	118901	KeyDown	41324	1	Little	10
198.5883333333333	0	n/a	119154	KeyDown	41324	3	Middle	10
198.9000000000000	0	n/a	119341	KeyDown	41324	2	Ring	10
199.3816666666667	0	n/a	119630	KeyDown	41324	4	Index	10
199.7816666666667	0	n/a	119870	KeyDown	41324	4	Index	10
200.0166666666667	0	n/a	120011	KeyDown	41324	1	Little	10
200.4766666666667	0	n/a	120287	KeyDown	41324	3	Middle	10
200.8683333333333	0	n/a	120522	KeyDown	41324	2	Ring	10
201.2333333333333	0	n/a	120741	KeyDown	41324	4	Index	10
201.6516666666667	0	n/a	120992	KeyDown	41324	4	Index	10
201.9150000000000	0	n/a	121150	KeyDown	41324	1	Little	10
202.4233333333333	0	n/a	121455	KeyDown	41324	3	Middle	10
202.7516666666667	0	n/a	121652	KeyDown	41324	2	Ring	10
203.0700000000000	0	n/a	121843	KeyDown	41324	4	Index	10
203.4633333333333	0	n/a	122079	KeyDown	41324	4	Index	10
203.7266666666667	0	n/a	122237	KeyDown	41324	1	Little	10
204.0783333333333	0	n/a	122448	KeyDown	41324	3	Middle	10
204.3783333333334	0	n/a	122628	KeyDown	41324	2	Ring	10
204.7766666666667	0	n/a	122867	KeyDown	41324	4	Index	10
205.2300000000000	0	n/a	123139	KeyDown	41324	4	Index	10
205.4883333333333	0	n/a	123294	KeyDown	41324	1	Little	10
206.1616666666667	0	n/a	123698	KeyDown	41324	3	Middle	10
206.4216666666667	0	n/a	123854	KeyDown	41324	2	Ring	10
206.9216666666667	0	n/a	124154	KeyDown	41324	4	Index	10
207.2733333333333	0	n/a	124365	StopPractice	41324	n/a	n/a	10
207.2750000000000	0	n/a	124366	StartRest	XXXXX	n/a	n/a	10
217.3083333333333	0	n/a	130386	StopRest	XXXXX	n/a	n/a	10
217.3100000000000	0	UPPT001	130387	StartPractice	41324	n/a	n/a	11
217.8766666666667	0	n/a	130727	KeyDown	41324	4	Index	11
218.1833333333333	0	n/a	130911	KeyDown	41324	1	Little	11
218.5216666666667	0	n/a	131114	KeyDown	41324	3	Middle	11
218.8950000000000	0	n/a	131338	KeyDown	41324	2	Ring	11
219.2416666666667	0	n/a	131546	KeyDown	41324	4	Index	11
219.6016666666667	0	n/a	131762	KeyDown	41324	4	Index	11
219.8966666666667	0	n/a	131939	KeyDown	41324	1	Little	11
220.3416666666667	0	n/a	132206	KeyDown	41324	3	Middle	11
220.6316666666667	0	n/a	132380	KeyDown	41324	2	Ring	11
220.9616666666667	0	n/a	132578	KeyDown	41324	4	Index	11
221.3683333333333	0	n/a	132822	KeyDown	41324	4	Index	11
221.5783333333333	0	n/a	132948	KeyDown	41324	1	Little	11
221.9716666666667	0	n/a	133184	KeyDown	41324	3	Middle	11
222.2516666666667	0	n/a	133352	KeyDown	41324	2	Ring	11
222.6283333333334	0	n/a	133578	KeyDown	41324	4	Index	11
223.1350000000000	0	n/a	133882	KeyDown	41324	4	Index	11
223.3816666666667	0	n/a	134030	KeyDown	41324	1	Little	11
223.7900000000000	0	n/a	134275	KeyDown	41324	3	Middle	11
224.0933333333333	0	n/a	134457	KeyDown	41324	2	Ring	11
224.4166666666667	0	n/a	134651	KeyDown	41324	4	Index	11
224.9133333333334	0	n/a	134949	KeyDown	41324	4	Index	11
225.1733333333333	0	n/a	135105	KeyDown	41324	1	Little	11
225.5950000000000	0	n/a	135358	KeyDown	41324	3	Middle	11
225.8883333333333	0	n/a	135534	KeyDown	41324	2	Ring	11
226.2150000000000	0	n/a	135730	KeyDown	41324	4	Index	11
226.5766666666667	0	n/a	135947	KeyDown	41324	4	Index	11
226.8500000000000	0	n/a	136111	KeyDown	41324	1	Little	11
227.2116666666667	0	n/a	136328	KeyDown	41324	3	Middle	11
227.3483333333334	0	n/a	136410	StopPractice	41324	n/a	n/a	11
227.3500000000000	0	n/a	136411	StartRest	XXXXX	n/a	n/a	11
237.3850000000000	0	n/a	142432	StopRest	XXXXX	n/a	n/a	11
237.3866666666667	0	UPPT001	142433	StartPractice	41324	n/a	n/a	12
237.9800000000000	0	n/a	142789	KeyDown	41324	4	Index	12
238.2333333333333	0	n/a	142941	KeyDown	41324	1	Little	12
238.5516666666667	0	n/a	143132	KeyDown	41324	3	Middle	12
238.8233333333334	0	n/a	143295	KeyDown	41324	2	Ring	12
239.1133333333333	0	n/a	143469	KeyDown	41324	4	Index	12
239.4500000000000	0	n/a	143671	KeyDown	41324	4	Index	12
239.6666666666667	0	n/a	143801	KeyDown	41324	1	Little	12
240.0116666666667	0	n/a	144008	KeyDown	41324	3	Middle	12
240.2850000000000	0	n/a	144172	KeyDown	41324	2	Ring	12
240.5483333333333	0	n/a	144330	KeyDown	41324	4	Index	12
240.9400000000000	0	n/a	144565	KeyDown	41324	4	Index	12
241.1783333333333	0	n/a	144708	KeyDown	41324	1	Little	12
241.5533333333333	0	n/a	144933	KeyDown	41324	3	Middle	12
241.8166666666667	0	n/a	145091	KeyDown	41324	2	Ring	12
242.1333333333334	0	n/a	145281	KeyDown	41324	4	Index	12
242.6350000000000	0	n/a	145582	KeyDown	41324	4	Index	12
242.9533333333333	0	n/a	145773	KeyDown	41324	1	Little	12
243.3750000000000	0	n/a	146026	KeyDown	41324	3	Middle	12
243.6000000000000	0	n/a	146161	KeyDown	41324	2	Ring	12
243.8916666666667	0	n/a	146336	KeyDown	41324	4	Index	12
244.4600000000000	0	n/a	146677	KeyDown	41324	4	Index	12
244.7333333333333	0	n/a	146841	KeyDown	41324	1	Little	12
245.1050000000000	0	n/a	147064	KeyDown	41324	3	Middle	12
245.3400000000000	0	n/a	147205	KeyDown	41324	2	Ring	12
245.6583333333334	0	n/a	147396	KeyDown	41324	4	Index	12
246.1383333333333	0	n/a	147684	KeyDown	41324	4	Index	12
246.5233333333333	0	n/a	147915	KeyDown	41324	3	Middle	12
246.7766666666667	0	n/a	148067	KeyDown	41324	2	Ring	12
247.0816666666667	0	n/a	148250	KeyDown	41324	1	Little	12
247.4250000000000	0	n/a	148456	StopPractice	41324	n/a	n/a	12
247.4266666666667	0	n/a	148457	StartRest	XXXXX	n/a	n/a	12
257.4583333333334	0	n/a	154476	StopRest	XXXXX	n/a	n/a	12
257.4600000000000	0	UPPT001	154477	StartPractice	41324	n/a	n/a	13
258.0566666666667	0	n/a	154835	KeyDown	41324	4	Index	13
258.3016666666667	0	n/a	154982	KeyDown	41324	1	Little	13
258.6350000000000	0	n/a	155182	KeyDown	41324	3	Middle	13
258.9016666666667	0	n/a	155342	KeyDown	41324	2	Ring	13
259.2166666666667	0	n/a	155531	KeyDown	41324	4	Index	13
259.5566666666667	0	n/a	155735	KeyDown	41324	4	Index	13
259.8250000000000	0	n/a	155896	KeyDown	41324	1	Little	13
260.2333333333333	0	n/a	156141	KeyDown	41324	3	Middle	13
260.4966666666667	0	n/a	156299	KeyDown	41324	2	Ring	13
260.8816666666667	0	n/a	156530	KeyDown	41324	4	Index	13
261.3666666666667	0	n/a	156821	KeyDown	41324	4	Index	13
261.9866666666667	0	n/a	157193	KeyDown	41324	1	Little	13
262.4466666666667	0	n/a	157469	KeyDown	41324	3	Middle	13
262.7066666666667	0	n/a	157625	KeyDown	41324	2	Ring	13
263.0350000000000	0	n/a	157822	KeyDown	41324	4	Index	13
263.4950000000000	0	n/a	158098	KeyDown	41324	4	Index	13
263.7783333333334	0	n/a	158268	KeyDown	41324	3	Middle	13
264.0233333333334	0	n/a	158415	KeyDown	41324	2	Ring	13
264.9166666666667	0	n/a	158951	KeyDown	41324	1	Little	13
265.8833333333333	0	n/a	159531	KeyDown	41324	4	Index	13
266.1766666666667	0	n/a	159707	KeyDown	41324	1	Little	13
266.7550000000000	0	n/a	160054	KeyDown	41324	3	Middle	13
267.0050000000000	0	n/a	160204	KeyDown	41324	2	Ring	13
267.3566666666667	0	n/a	160415	KeyDown	41324	4	Index	13
267.4983333333333	0	n/a	160500	StopPractice	41324	n/a	n/a	13
267.5000000000000	0	n/a	160501	StartRest	XXXXX	n/a	n/a	13
277.5333333333334	0	n/a	166521	StopRest	XXXXX	n/a	n/a	13
277.5350000000000	0	UPPT001	166522	StartPractice	41324	n/a	n/a	14
278.1133333333333	0	n/a	166869	KeyDown	41324	4	Index	14
278.4050000000000	0	n/a	167044	KeyDown	41324	1	Little	14
278.7216666666667	0	n/a	167234	KeyDown	41324	3	Middle	14
278.9866666666667	0	n/a	167393	KeyDown	41324	2	Ring	14
279.3933333333334	0	n/a	167637	KeyDown	41324	4	Index	14
279.7750000000000	0	n/a	167866	KeyDown	41324	4	Index	14
279.9933333333333	0	n/a	167997	KeyDown	41324	1	Little	14
280.3733333333333	0	n/a	168225	KeyDown	41324	3	Middle	14
280.6433333333334	0	n/a	168387	KeyDown	41324	2	Ring	14
280.9583333333334	0	n/a	168576	KeyDown	41324	4	Index	14
281.4400000000000	0	n/a	168865	KeyDown	41324	4	Index	14
282.2283333333334	0	n/a	169338	KeyDown	41324	1	Little	14
282.6200000000000	0	n/a	169573	KeyDown	41324	3	Middle	14
282.8533333333334	0	n/a	169713	KeyDown	41324	2	Ring	14
283.2866666666667	0	n/a	169973	KeyDown	41324	4	Index	14
283.8583333333333	0	n/a	170316	KeyDown	41324	4	Index	14
284.2416666666667	0	n/a	170546	KeyDown	41324	1	Little	14
284.6166666666667	0	n/a	170771	KeyDown	41324	3	Middle	14
284.8666666666667	0	n/a	170921	KeyDown	41324	2	Ring	14
285.1466666666667	0	n/a	171089	KeyDown	41324	4	Index	14
285.6933333333333	0	n/a	171417	KeyDown	41324	4	Index	14
286.4916666666667	0	n/a	171896	KeyDown	41324	1	Little	14
287.0250000000000	0	n/a	172216	KeyDown	41324	3	Middle	14
287.3233333333333	0	n/a	172395	KeyDown	41324	2	Ring	14
287.5733333333333	0	n/a	172545	StopPractice	41324	n/a	n/a	14
287.5750000000000	0	n/a	172546	StartRest	XXXXX	n/a	n/a	14
297.6100000000000	0	n/a	178567	StopRest	XXXXX	n/a	n/a	14
297.6116666666667	0	UPPT001	178568	StartPractice	41324	n/a	n/a	15
298.1783333333333	0	n/a	178908	KeyDown	41324	4	Index	15
298.4116666666667	0	n/a	179048	KeyDown	41324	1	Little	15
298.8050000000000	0	n/a	179284	KeyDown	41324	3	Middle	15
299.0583333333333	0	n/a	179436	KeyDown	41324	2	Ring	15
299.3533333333334	0	n/a	179613	KeyDown	41324	4	Index	15
299.7700000000000	0	n/a	179863	KeyDown	41324	4	Index	15
299.9833333333333	0	n/a	179991	KeyDown	41324	1	Little	15
300.3866666666667	0	n/a	180233	KeyDown	41324	3	Middle	15
300.6566666666667	0	n/a	180395	KeyDown	41324	2	Ring	15
301.0033333333333	0	n/a	180603	KeyDown	41324	4	Index	15
301.4683333333334	0	n/a	180882	KeyDown	41324	4	Index	15
301.7933333333334	0	n/a	181077	KeyDown	41324	1	Little	15
302.1883333333333	0	n/a	181314	KeyDown	41324	3	Middle	15
302.4383333333333	0	n/a	181464	KeyDown	41324	2	Ring	15
302.7350000000000	0	n/a	181642	KeyDown	41324	4	Index	15
303.1500000000000	0	n/a	181891	KeyDown	41324	4	Index	15
303.4800000000000	0	n/a	182089	KeyDown	41324	1	Little	15
303.8983333333334	0	n/a	182340	KeyDown	41324	3	Middle	15
304.2050000000000	0	n/a	182524	KeyDown	41324	2	Ring	15
304.6183333333333	0	n/a	182772	KeyDown	41324	4	Index	15
305.0650000000000	0	n/a	183040	KeyDown	41324	4	Index	15
305.7400000000000	0	n/a	183445	KeyDown	41324	1	Little	15
306.4450000000000	0	n/a	183868	KeyDown	41324	3	Middle	15
306.7200000000000	0	n/a	184033	KeyDown	41324	2	Ring	15
307.0450000000000	0	n/a	184228	KeyDown	41324	4	Index	15
307.5450000000000	0	n/a	184528	KeyDown	41324	4	Index	15
307.6500000000000	0	n/a	184591	StopPractice	41324	n/a	n/a	15
307.6516666666667	0	n/a	184592	StartRest	XXXXX	n/a	n/a	15
317.6833333333333	0	n/a	190611	StopRest	XXXXX	n/a	n/a	15
317.6850000000000	0	UPPT001	190612	StartPractice	41324	n/a	n/a	16
318.4133333333334	0	n/a	191049	KeyDown	41324	4	Index	16
318.6433333333334	0	n/a	191187	KeyDown	41324	1	Little	16
319.0016666666667	0	n/a	191402	KeyDown	41324	3	Middle	16
319.2466666666667	0	n/a	191549	KeyDown	41324	2	Ring	16
319.8933333333334	0	n/a	191937	KeyDown	41324	1	Little	16
321.1866666666667	0	n/a	192713	KeyDown	41324	4	Index	16
321.4216666666667	0	n/a	192854	KeyDown	41324	1	Little	16
321.8083333333333	0	n/a	193086	KeyDown	41324	3	Middle	16
322.3183333333333	0	n/a	193392	KeyDown	41324	2	Ring	16
323.0050000000000	0	n/a	193804	KeyDown	41324	4	Index	16
324.2150000000000	0	n/a	194530	KeyDown	41324	4	Index	16
324.4566666666667	0	n/a	194675	KeyDown	41324	1	Little	16
324.9633333333334	0	n/a	194979	KeyDown	41324	3	Middle	16
325.1916666666667	0	n/a	195116	KeyDown	41324	2	Ring	16
327.4966666666667	0	n/a	196499	KeyDown	41324	4	Index	16
327.7233333333334	0	n/a	196635	StopPractice	41324	n/a	n/a	16
327.7250000000000	0	n/a	196636	StartRest	XXXXX	n/a	n/a	16
337.7583333333334	0	n/a	202656	StopRest	XXXXX	n/a	n/a	16
337.7600000000000	0	UPPT001	202657	StartPractice	41324	n/a	n/a	17
338.2583333333334	0	n/a	202956	KeyDown	41324	4	Index	17
338.5566666666667	0	n/a	203135	KeyDown	41324	1	Little	17
338.8900000000000	0	n/a	203335	KeyDown	41324	3	Middle	17
339.2783333333334	0	n/a	203568	KeyDown	41324	2	Ring	17
339.7733333333334	0	n/a	203865	KeyDown	41324	4	Index	17
340.4800000000000	0	n/a	204289	KeyDown	41324	4	Index	17
340.7450000000000	0	n/a	204448	KeyDown	41324	1	Little	17
341.1433333333334	0	n/a	204687	KeyDown	41324	3	Middle	17
341.4333333333333	0	n/a	204861	KeyDown	41324	2	Ring	17
341.7983333333333	0	n/a	205080	KeyDown	41324	4	Index	17
342.2533333333333	0	n/a	205353	KeyDown	41324	4	Index	17
342.6566666666667	0	n/a	205595	KeyDown	41324	1	Little	17
343.1466666666667	0	n/a	205889	KeyDown	41324	3	Middle	17
343.4566666666667	0	n/a	206075	KeyDown	41324	2	Ring	17
343.8283333333334	0	n/a	206298	KeyDown	41324	4	Index	17
344.3433333333334	0	n/a	206607	KeyDown	41324	4	Index	17
344.7133333333334	0	n/a	206829	KeyDown	41324	1	Little	17
345.2166666666667	0	n/a	207131	KeyDown	41324	3	Middle	17
345.5716666666667	0	n/a	207344	KeyDown	41324	2	Ring	17
345.9466666666667	0	n/a	207569	KeyDown	41324	4	Index	17
346.3583333333333	0	n/a	207816	KeyDown	41324	4	Index	17
346.6816666666667	0	n/a	208010	KeyDown	41324	1	Little	17
347.0783333333334	0	n/a	208248	KeyDown	41324	3	Middle	17
347.3983333333334	0	n/a	208440	KeyDown	41324	2	Ring	17
347.7300000000000	0	n/a	208639	KeyDown	41324	4	Index	17
347.7983333333333	0	n/a	208680	StopPractice	41324	n/a	n/a	17
347.8000000000000	0	n/a	208681	StartRest	XXXXX	n/a	n/a	17
357.8333333333334	0	n/a	214701	StopRest	XXXXX	n/a	n/a	17
357.8350000000000	0	UPPT001	214702	StartPractice	41324	n/a	n/a	18
358.3116666666667	0	n/a	214988	KeyDown	41324	4	Index	18
358.6183333333333	0	n/a	215172	KeyDown	41324	1	Little	18
359.0516666666667	0	n/a	215432	KeyDown	41324	3	Middle	18
359.3183333333333	0	n/a	215592	KeyDown	41324	2	Ring	18
359.7583333333334	0	n/a	215856	KeyDown	41324	1	Little	18
361.1866666666667	0	n/a	216713	KeyDown	41324	4	Index	18
361.4300000000000	0	n/a	216859	KeyDown	41324	1	Little	18
361.9450000000001	0	n/a	217168	KeyDown	41324	3	Middle	18
362.1800000000000	0	n/a	217309	KeyDown	41324	2	Ring	18
362.4550000000000	0	n/a	217474	KeyDown	41324	4	Index	18
362.8616666666667	0	n/a	217718	KeyDown	41324	4	Index	18
363.1616666666667	0	n/a	217898	KeyDown	41324	1	Little	18
364.0333333333334	0	n/a	218421	KeyDown	41324	3	Middle	18
364.3133333333333	0	n/a	218589	KeyDown	41324	2	Ring	18
365.0883333333334	0	n/a	219054	KeyDown	41324	4	Index	18
365.5083333333334	0	n/a	219306	KeyDown	41324	4	Index	18
365.7800000000000	0	n/a	219469	KeyDown	41324	1	Little	18
366.1933333333334	0	n/a	219717	KeyDown	41324	3	Middle	18
366.4600000000000	0	n/a	219877	KeyDown	41324	2	Ring	18
366.8916666666667	0	n/a	220136	KeyDown	41324	4	Index	18
367.8733333333333	0	n/a	220725	StopPractice	41324	n/a	n/a	18
367.8750000000000	0	n/a	220726	StartRest	XXXXX	n/a	n/a	18
377.9083333333334	0	n/a	226746	StopRest	XXXXX	n/a	n/a	18
377.9100000000000	0	UPPT001	226747	StartPractice	41324	n/a	n/a	19
378.4033333333334	0	n/a	227043	KeyDown	41324	4	Index	19
378.7000000000000	0	n/a	227221	KeyDown	41324	1	Little	19
379.0716666666667	0	n/a	227444	KeyDown	41324	3	Middle	19
379.3383333333334	0	n/a	227604	KeyDown	41324	2	Ring	19
379.7333333333333	0	n/a	227841	KeyDown	41324	4	Index	19
380.1833333333333	0	n/a	228111	KeyDown	41324	4	Index	19
380.4266666666667	0	n/a	228257	KeyDown	41324	1	Little	19
380.7666666666667	0	n/a	228461	KeyDown	41324	3	Middle	19
381.0116666666667	0	n/a	228608	KeyDown	41324	2	Ring	19
381.2133333333334	0	n/a	228729	KeyDown	41324	4	Index	19
382.1216666666667	0	n/a	229274	KeyDown	41324	4	Index	19
382.3516666666667	0	n/a	229412	KeyDown	41324	1	Little	19
382.7866666666667	0	n/a	229673	KeyDown	41324	3	Middle	19
383.0350000000000	0	n/a	229822	KeyDown	41324	2	Ring	19
383.3216666666667	0	n/a	229994	KeyDown	41324	4	Index	19
383.8383333333334	0	n/a	230304	KeyDown	41324	4	Index	19
384.0466666666667	0	n/a	230429	KeyDown	41324	1	Little	19
384.4433333333334	0	n/a	230667	KeyDown	41324	3	Middle	19
384.7116666666667	0	n/a	230828	KeyDown	41324	2	Ring	19
385.0083333333334	0	n/a	231006	KeyDown	41324	4	Index	19
385.5333333333334	0	n/a	231321	KeyDown	41324	4	Index	19
385.7883333333334	0	n/a	231474	KeyDown	41324	1	Little	19
386.2000000000000	0	n/a	231721	KeyDown	41324	3	Middle	19
386.3833333333334	0	n/a	231831	KeyDown	41324	2	Ring	19
386.6850000000000	0	n/a	232012	KeyDown	41324	4	Index	19
387.1783333333333	0	n/a	232308	KeyDown	41324	4	Index	19
387.4133333333334	0	n/a	232449	KeyDown	41324	1	Little	19
387.8383333333334	0	n/a	232704	KeyDown	41324	3	Middle	19
387.9483333333334	0	n/a	232770	StopPractice	41324	n/a	n/a	19
387.9500000000000	0	n/a	232771	StartRest	XXXXX	n/a	n/a	19
397.9833333333333	0	n/a	238791	StopRest	XXXXX	n/a	n/a	19
397.9850000000000	0	UPPT001	238792	StartPractice	41324	n/a	n/a	20
398.6083333333333	0	n/a	239166	KeyDown	41324	4	Index	20
398.8366666666667	0	n/a	239303	KeyDown	41324	1	Little	20
399.1816666666667	0	n/a	239510	KeyDown	41324	3	Middle	20
399.4000000000000	0	n/a	239641	KeyDown	41324	2	Ring	20
399.7250000000000	0	n/a	239836	KeyDown	41324	4	Index	20
400.1333333333334	0	n/a	240081	KeyDown	41324	4	Index	20
400.3533333333334	0	n/a	240213	KeyDown	41324	1	Little	20
400.6966666666667	0	n/a	240419	KeyDown	41324	3	Middle	20
400.9316666666667	0	n/a	240560	KeyDown	41324	2	Ring	20
401.2766666666667	0	n/a	240767	KeyDown	41324	4	Index	20
401.7333333333333	0	n/a	241041	KeyDown	41324	4	Index	20
401.9766666666667	0	n/a	241187	KeyDown	41324	1	Little	20
402.2683333333334	0	n/a	241362	KeyDown	41324	3	Middle	20
402.4983333333333	0	n/a	241500	KeyDown	41324	2	Ring	20
402.8016666666667	0	n/a	241682	KeyDown	41324	4	Index	20
403.2816666666667	0	n/a	241970	KeyDown	41324	4	Index	20
403.4916666666667	0	n/a	242096	KeyDown	41324	1	Little	20
403.8883333333334	0	n/a	242334	KeyDown	41324	3	Middle	20
404.1100000000000	0	n/a	242467	KeyDown	41324	2	Ring	20
404.4083333333334	0	n/a	242646	KeyDown	41324	4	Index	20
404.8283333333334	0	n/a	242898	KeyDown	41324	4	Index	20
405.0950000000000	0	n/a	243058	KeyDown	41324	1	Little	20
405.4750000000000	0	n/a	243286	KeyDown	41324	3	Middle	20
405.6983333333334	0	n/a	243420	KeyDown	41324	2	Ring	20
405.9483333333334	0	n/a	243570	KeyDown	41324	4	Index	20
406.5266666666667	0	n/a	243917	KeyDown	41324	4	Index	20
406.7333333333333	0	n/a	244041	KeyDown	41324	1	Little	20
407.3566666666667	0	n/a	244415	KeyDown	41324	3	Middle	20
407.5900000000000	0	n/a	244555	KeyDown	41324	2	Ring	20
407.9250000000000	0	n/a	244756	KeyDown	41324	4	Index	20
408.0233333333334	0	n/a	244815	StopPractice	41324	n/a	n/a	20
408.0250000000000	0	n/a	244816	StartRest	XXXXX	n/a	n/a	20
418.0733333333334	0	n/a	250845	StopRest	XXXXX	n/a	n/a	20
418.0750000000000	0	UPPT001	250846	StartPractice	41324	n/a	n/a	21
418.6433333333334	0	n/a	251187	KeyDown	41324	4	Index	21
418.9033333333334	0	n/a	251343	KeyDown	41324	1	Little	21
419.2583333333334	0	n/a	251556	KeyDown	41324	3	Middle	21
419.4983333333333	0	n/a	251700	KeyDown	41324	2	Ring	21
419.8483333333334	0	n/a	251910	KeyDown	41324	4	Index	21
420.2783333333334	0	n/a	252168	KeyDown	41324	4	Index	21
420.5116666666667	0	n/a	252308	KeyDown	41324	1	Little	21
420.8150000000001	0	n/a	252490	KeyDown	41324	3	Middle	21
421.0616666666667	0	n/a	252638	KeyDown	41324	2	Ring	21
421.5533333333333	0	n/a	252933	KeyDown	41324	4	Index	21
421.9033333333334	0	n/a	253143	KeyDown	41324	4	Index	21
422.1400000000000	0	n/a	253285	KeyDown	41324	1	Little	21
422.6033333333334	0	n/a	253563	KeyDown	41324	3	Middle	21
422.8283333333334	0	n/a	253698	KeyDown	41324	2	Ring	21
423.1316666666667	0	n/a	253880	KeyDown	41324	4	Index	21
423.6100000000000	0	n/a	254167	KeyDown	41324	4	Index	21
423.8766666666667	0	n/a	254327	KeyDown	41324	1	Little	21
424.3433333333334	0	n/a	254607	KeyDown	41324	3	Middle	21
424.5900000000000	0	n/a	254755	KeyDown	41324	2	Ring	21
424.8600000000000	0	n/a	254917	KeyDown	41324	4	Index	21
425.3383333333334	0	n/a	255204	KeyDown	41324	4	Index	21
425.6000000000000	0	n/a	255361	KeyDown	41324	1	Little	21
425.9966666666667	0	n/a	255599	KeyDown	41324	3	Middle	21
426.2416666666667	0	n/a	255746	KeyDown	41324	2	Ring	21
426.5533333333333	0	n/a	255933	KeyDown	41324	4	Index	21
427.0583333333333	0	n/a	256236	KeyDown	41324	4	Index	21
427.3133333333333	0	n/a	256389	KeyDown	41324	1	Little	21
427.7166666666667	0	n/a	256631	KeyDown	41324	3	Middle	21
427.9433333333334	0	n/a	256767	KeyDown	41324	2	Ring	21
428.1133333333333	0	n/a	256869	StopPractice	41324	n/a	n/a	21
428.1150000000000	0	n/a	256870	StartRest	XXXXX	n/a	n/a	21
438.1500000000000	0	n/a	262891	StopRest	XXXXX	n/a	n/a	21
438.1516666666667	0	UPPT001	262892	StartPractice	41324	n/a	n/a	22
438.6733333333333	0	n/a	263205	KeyDown	41324	4	Index	22
438.9016666666667	0	n/a	263342	KeyDown	41324	1	Little	22
439.2233333333334	0	n/a	263535	KeyDown	41324	3	Middle	22
439.4633333333334	0	n/a	263679	KeyDown	41324	2	Ring	22
439.7450000000000	0	n/a	263848	KeyDown	41324	4	Index	22
440.0550000000000	0	n/a	264034	KeyDown	41324	4	Index	22
440.2833333333334	0	n/a	264171	KeyDown	41324	1	Little	22
440.5866666666667	0	n/a	264353	KeyDown	41324	3	Middle	22
440.8166666666667	0	n/a	264491	KeyDown	41324	2	Ring	22
441.0833333333334	0	n/a	264651	KeyDown	41324	4	Index	22
441.4233333333333	0	n/a	264855	KeyDown	41324	4	Index	22
441.6833333333333	0	n/a	265011	KeyDown	41324	1	Little	22
442.1233333333333	0	n/a	265275	KeyDown	41324	3	Middle	22
442.4383333333334	0	n/a	265464	KeyDown	41324	2	Ring	22
442.9866666666667	0	n/a	265793	KeyDown	41324	4	Index	22
443.2683333333334	0	n/a	265962	KeyDown	41324	4	Index	22
443.4833333333333	0	n/a	266091	KeyDown	41324	1	Little	22
443.9150000000000	0	n/a	266350	KeyDown	41324	3	Middle	22
444.1933333333334	0	n/a	266517	KeyDown	41324	2	Ring	22
444.8400000000000	0	n/a	266905	KeyDown	41324	4	Index	22
445.1866666666667	0	n/a	267113	KeyDown	41324	4	Index	22
445.4033333333334	0	n/a	267243	KeyDown	41324	1	Little	22
445.9750000000000	0	n/a	267586	KeyDown	41324	3	Middle	22
446.1800000000000	0	n/a	267709	KeyDown	41324	2	Ring	22
446.4900000000000	0	n/a	267895	KeyDown	41324	1	Little	22
447.4300000000000	0	n/a	268459	KeyDown	41324	4	Index	22
448.1266666666667	0	n/a	268877	KeyDown	41324	4	Index	22
448.1900000000001	0	n/a	268915	StopPractice	41324	n/a	n/a	22
448.1916666666667	0	n/a	268916	StartRest	XXXXX	n/a	n/a	22
458.2250000000000	0	n/a	274936	StopRest	XXXXX	n/a	n/a	22
458.2266666666667	0	UPPT001	274937	StartPractice	41324	n/a	n/a	23
458.9100000000000	0	n/a	275347	KeyDown	41324	4	Index	23
459.1700000000000	0	n/a	275503	KeyDown	41324	1	Little	23
459.4983333333333	0	n/a	275700	KeyDown	41324	3	Middle	23
459.8050000000000	0	n/a	275884	KeyDown	41324	2	Ring	23
460.4733333333334	0	n/a	276285	KeyDown	41324	4	Index	23
460.7983333333333	0	n/a	276480	KeyDown	41324	4	Index	23
461.0000000000001	0	n/a	276601	KeyDown	41324	1	Little	23
461.3100000000000	0	n/a	276787	KeyDown	41324	3	Middle	23
461.5200000000000	0	n/a	276913	KeyDown	41324	2	Ring	23
461.9683333333334	0	n/a	277182	KeyDown	41324	4	Index	23
462.3616666666667	0	n/a	277418	KeyDown	41324	4	Index	23
462.5583333333333	0	n/a	277536	KeyDown	41324	1	Little	23
462.9550000000000	0	n/a	277774	KeyDown	41324	3	Middle	23
463.1650000000000	0	n/a	277900	KeyDown	41324	2	Ring	23
463.4450000000001	0	n/a	278068	KeyDown	41324	4	Index	23
463.8566666666667	0	n/a	278315	KeyDown	41324	4	Index	23
464.0883333333334	0	n/a	278454	KeyDown	41324	1	Little	23
464.5033333333334	0	n/a	278703	KeyDown	41324	3	Middle	23
464.6783333333333	0	n/a	278808	KeyDown	41324	2	Ring	23
464.9833333333333	0	n/a	278991	KeyDown	41324	4	Index	23
465.4750000000000	0	n/a	279286	KeyDown	41324	4	Index	23
465.7083333333334	0	n/a	279426	KeyDown	41324	1	Little	23
466.0716666666667	0	n/a	279644	KeyDown	41324	3	Middle	23
466.2400000000000	0	n/a	279745	KeyDown	41324	2	Ring	23
466.5650000000001	0	n/a	279940	KeyDown	41324	4	Index	23
467.2150000000000	0	n/a	280330	KeyDown	41324	4	Index	23
467.4250000000000	0	n/a	280456	KeyDown	41324	1	Little	23
467.8650000000000	0	n/a	280720	KeyDown	41324	3	Middle	23
468.0500000000000	0	n/a	280831	KeyDown	41324	2	Ring	23
468.2650000000000	0	n/a	280960	StopPractice	41324	n/a	n/a	23
468.2666666666667	0	n/a	280961	StartRest	XXXXX	n/a	n/a	23
478.2983333333333	0	n/a	286980	StopRest	XXXXX	n/a	n/a	23
478.3000000000000	0	UPPT001	286981	StartPractice	41324	n/a	n/a	24
478.8516666666667	0	n/a	287312	KeyDown	41324	4	Index	24
479.1000000000000	0	n/a	287461	KeyDown	41324	1	Little	24
479.4033333333334	0	n/a	287643	KeyDown	41324	3	Middle	24
479.5883333333334	0	n/a	287754	KeyDown	41324	2	Ring	24
479.8350000000000	0	n/a	287902	KeyDown	41324	4	Index	24
480.2116666666667	0	n/a	288128	KeyDown	41324	4	Index	24
480.4250000000000	0	n/a	288256	KeyDown	41324	1	Little	24
480.7483333333334	0	n/a	288450	KeyDown	41324	3	Middle	24
480.9000000000000	0	n/a	288541	KeyDown	41324	2	Ring	24
481.2300000000000	0	n/a	288739	KeyDown	41324	4	Index	24
481.6333333333334	0	n/a	288981	KeyDown	41324	4	Index	24
481.8166666666667	0	n/a	289091	KeyDown	41324	1	Little	24
482.1900000000001	0	n/a	289315	KeyDown	41324	3	Middle	24
482.4266666666667	0	n/a	289457	KeyDown	41324	2	Ring	24
483.7066666666667	0	n/a	290225	KeyDown	41324	4	Index	24
484.3300000000000	0	n/a	290599	KeyDown	41324	4	Index	24
484.5666666666667	0	n/a	290741	KeyDown	41324	1	Little	24
484.8866666666667	0	n/a	290933	KeyDown	41324	3	Middle	24
485.1216666666667	0	n/a	291074	KeyDown	41324	2	Ring	24
485.3350000000000	0	n/a	291202	KeyDown	41324	4	Index	24
485.7433333333333	0	n/a	291447	KeyDown	41324	4	Index	24
485.9783333333334	0	n/a	291588	KeyDown	41324	1	Little	24
486.3466666666667	0	n/a	291809	KeyDown	41324	3	Middle	24
486.5133333333334	0	n/a	291909	KeyDown	41324	2	Ring	24
486.8766666666667	0	n/a	292127	KeyDown	41324	4	Index	24
487.4616666666667	0	n/a	292478	KeyDown	41324	4	Index	24
487.9250000000000	0	n/a	292756	KeyDown	41324	1	Little	24
488.3383333333334	0	n/a	293004	StopPractice	41324	n/a	n/a	24
488.3400000000000	0	n/a	293005	StartRest	XXXXX	n/a	n/a	24
498.3733333333334	0	n/a	299025	StopRest	XXXXX	n/a	n/a	24
498.3750000000001	0	UPPT001	299026	StartPractice	41324	n/a	n/a	25
498.9033333333334	0	n/a	299343	KeyDown	41324	4	Index	25
499.1533333333334	0	n/a	299493	KeyDown	41324	1	Little	25
499.4533333333334	0	n/a	299673	KeyDown	41324	3	Middle	25
499.5950000000000	0	n/a	299758	KeyDown	41324	2	Ring	25
499.8316666666667	0	n/a	299900	KeyDown	41324	4	Index	25
500.2283333333334	0	n/a	300138	KeyDown	41324	4	Index	25
500.4483333333334	0	n/a	300270	KeyDown	41324	1	Little	25
501.2133333333334	0	n/a	300729	KeyDown	41324	3	Middle	25
501.3966666666667	0	n/a	300839	KeyDown	41324	2	Ring	25
501.6233333333334	0	n/a	300975	KeyDown	41324	4	Index	25
502.0083333333334	0	n/a	301206	KeyDown	41324	4	Index	25
502.2133333333334	0	n/a	301329	KeyDown	41324	1	Little	25
502.5633333333334	0	n/a	301539	KeyDown	41324	3	Middle	25
502.6916666666667	0	n/a	301616	KeyDown	41324	2	Ring	25
502.9366666666667	0	n/a	301763	KeyDown	41324	4	Index	25
503.3983333333334	0	n/a	302040	KeyDown	41324	4	Index	25
503.6583333333334	0	n/a	302196	KeyDown	41324	1	Little	25
504.1116666666667	0	n/a	302468	KeyDown	41324	3	Middle	25
504.2433333333333	0	n/a	302547	KeyDown	41324	2	Ring	25
504.5600000000001	0	n/a	302737	KeyDown	41324	4	Index	25
504.9983333333334	0	n/a	303000	KeyDown	41324	4	Index	25
505.2266666666667	0	n/a	303137	KeyDown	41324	1	Little	25
505.8966666666667	0	n/a	303539	KeyDown	41324	3	Middle	25
505.9683333333334	0	n/a	303582	KeyDown	41324	2	Ring	25
506.4233333333333	0	n/a	303855	KeyDown	41324	4	Index	25
506.9583333333334	0	n/a	304176	KeyDown	41324	4	Index	25
507.2066666666667	0	n/a	304325	KeyDown	41324	1	Little	25
507.9000000000000	0	n/a	304741	KeyDown	41324	3	Middle	25
507.9916666666667	0	n/a	304796	KeyDown	41324	2	Ring	25
508.3016666666667	0	n/a	304982	KeyDown	41324	4	Index	25
508.4133333333334	0	n/a	305049	StopPractice	41324	n/a	n/a	25
508.4150000000000	0	n/a	305050	StartRest	XXXXX	n/a	n/a	25
518.4483333333334	0	n/a	311070	StopRest	XXXXX	n/a	n/a	25
518.4500000000000	0	UPPT001	311071	StartPractice	41324	n/a	n/a	26
518.9383333333334	0	n/a	311364	KeyDown	41324	4	Index	26
519.1833333333334	0	n/a	311511	KeyDown	41324	1	Little	26
519.4966666666667	0	n/a	311699	KeyDown	41324	3	Middle	26
519.7100000000000	0	n/a	311827	KeyDown	41324	2	Ring	26
519.8166666666667	0	n/a	311891	KeyDown	41324	3	Middle	26
520.2383333333333	0	n/a	312144	KeyDown	41324	4	Index	26
520.6883333333334	0	n/a	312414	KeyDown	41324	4	Index	26
520.9366666666667	0	n/a	312563	KeyDown	41324	1	Little	26
521.2883333333334	0	n/a	312774	KeyDown	41324	3	Middle	26
521.4350000000001	0	n/a	312862	KeyDown	41324	2	Ring	26
521.7033333333334	0	n/a	313023	KeyDown	41324	4	Index	26
522.0833333333334	0	n/a	313251	KeyDown	41324	4	Index	26
522.4400000000001	0	n/a	313465	KeyDown	41324	1	Little	26
522.8066666666667	0	n/a	313685	KeyDown	41324	3	Middle	26
522.9283333333334	0	n/a	313758	KeyDown	41324	2	Ring	26
523.1933333333334	0	n/a	313917	KeyDown	41324	4	Index	26
523.6266666666667	0	n/a	314177	KeyDown	41324	4	Index	26
524.5183333333333	0	n/a	314712	KeyDown	41324	1	Little	26
524.8483333333334	0	n/a	314910	KeyDown	41324	3	Middle	26
524.9750000000000	0	n/a	314986	KeyDown	41324	2	Ring	26
525.2516666666667	0	n/a	315152	KeyDown	41324	4	Index	26
525.6233333333333	0	n/a	315375	KeyDown	41324	4	Index	26
525.9283333333334	0	n/a	315558	KeyDown	41324	1	Little	26
526.3216666666667	0	n/a	315794	KeyDown	41324	3	Middle	26
526.4316666666667	0	n/a	315860	KeyDown	41324	2	Ring	26
526.8433333333334	0	n/a	316107	KeyDown	41324	4	Index	26
527.2766666666668	0	n/a	316367	KeyDown	41324	4	Index	26
527.6733333333334	0	n/a	316605	KeyDown	41324	1	Little	26
528.0616666666667	0	n/a	316838	KeyDown	41324	3	Middle	26
528.1833333333334	0	n/a	316911	KeyDown	41324	2	Ring	26
528.4200000000001	0	n/a	317053	KeyDown	41324	4	Index	26
528.4883333333333	0	n/a	317094	StopPractice	41324	n/a	n/a	26
528.4900000000000	0	n/a	317095	StartRest	XXXXX	n/a	n/a	26
538.5233333333333	0	n/a	323115	StopRest	XXXXX	n/a	n/a	26
538.5250000000001	0	UPPT001	323116	StartPractice	41324	n/a	n/a	27
539.0450000000001	0	n/a	323428	KeyDown	41324	4	Index	27
539.2533333333333	0	n/a	323553	KeyDown	41324	1	Little	27
539.5433333333334	0	n/a	323727	KeyDown	41324	3	Middle	27
539.6766666666667	0	n/a	323807	KeyDown	41324	2	Ring	27
539.8533333333334	0	n/a	323913	KeyDown	41324	4	Index	27
540.1666666666667	0	n/a	324101	KeyDown	41324	4	Index	27
540.3500000000000	0	n/a	324211	KeyDown	41324	1	Little	27
540.6883333333334	0	n/a	324414	KeyDown	41324	3	Middle	27
540.8133333333334	0	n/a	324489	KeyDown	41324	2	Ring	27
541.1016666666667	0	n/a	324662	KeyDown	41324	4	Index	27
541.4433333333334	0	n/a	324867	KeyDown	41324	4	Index	27
541.6633333333334	0	n/a	324999	KeyDown	41324	1	Little	27
541.9833333333333	0	n/a	325191	KeyDown	41324	3	Middle	27
542.0833333333334	0	n/a	325251	KeyDown	41324	2	Ring	27
542.4200000000001	0	n/a	325453	KeyDown	41324	4	Index	27
542.8650000000000	0	n/a	325720	KeyDown	41324	4	Index	27
543.1250000000000	0	n/a	325876	KeyDown	41324	1	Little	27
543.4950000000000	0	n/a	326098	KeyDown	41324	3	Middle	27
543.6016666666667	0	n/a	326162	KeyDown	41324	2	Ring	27
544.1016666666667	0	n/a	326462	KeyDown	41324	4	Index	27
544.6166666666667	0	n/a	326771	KeyDown	41324	4	Index	27
545.0116666666667	0	n/a	327008	KeyDown	41324	1	Little	27
545.4266666666667	0	n/a	327257	KeyDown	41324	3	Middle	27
545.5250000000001	0	n/a	327316	KeyDown	41324	2	Ring	27
545.7350000000000	0	n/a	327442	KeyDown	41324	4	Index	27
546.0750000000000	0	n/a	327646	KeyDown	41324	4	Index	27
546.3683333333333	0	n/a	327822	KeyDown	41324	1	Little	27
546.7216666666667	0	n/a	328034	KeyDown	41324	3	Middle	27
546.8183333333334	0	n/a	328092	KeyDown	41324	2	Ring	27
546.9700000000000	0	n/a	328183	KeyDown	41324	1	Little	27
547.6583333333334	0	n/a	328596	KeyDown	41324	4	Index	27
548.3466666666667	0	n/a	329009	KeyDown	41324	1	Little	27
548.5633333333334	0	n/a	329139	StopPractice	41324	n/a	n/a	27
548.5650000000001	0	n/a	329140	StartRest	XXXXX	n/a	n/a	27
558.5983333333334	0	n/a	335160	StopRest	XXXXX	n/a	n/a	27
558.6000000000000	0	UPPT001	335161	StartPractice	41324	n/a	n/a	28
559.0816666666667	0	n/a	335450	KeyDown	41324	4	Index	28
559.2650000000000	0	n/a	335560	KeyDown	41324	1	Little	28
559.5650000000001	0	n/a	335740	KeyDown	41324	3	Middle	28
559.7000000000000	0	n/a	335821	KeyDown	41324	2	Ring	28
559.9116666666667	0	n/a	335948	KeyDown	41324	4	Index	28
560.1883333333334	0	n/a	336114	KeyDown	41324	4	Index	28
560.4166666666667	0	n/a	336251	KeyDown	41324	1	Little	28
560.6983333333334	0	n/a	336420	KeyDown	41324	3	Middle	28
560.8516666666667	0	n/a	336512	KeyDown	41324	2	Ring	28
561.0383333333334	0	n/a	336624	KeyDown	41324	4	Index	28
561.4566666666667	0	n/a	336875	KeyDown	41324	4	Index	28
561.6633333333334	0	n/a	336999	KeyDown	41324	1	Little	28
561.9983333333333	0	n/a	337200	KeyDown	41324	3	Middle	28
562.1150000000000	0	n/a	337270	KeyDown	41324	2	Ring	28
562.3483333333334	0	n/a	337410	KeyDown	41324	4	Index	28
562.7116666666667	0	n/a	337628	KeyDown	41324	4	Index	28
562.9216666666667	0	n/a	337754	KeyDown	41324	1	Little	28
563.2733333333334	0	n/a	337965	KeyDown	41324	3	Middle	28
563.3916666666667	0	n/a	338036	KeyDown	41324	2	Ring	28
563.4933333333333	0	n/a	338097	KeyDown	41324	1	Little	28
564.5066666666667	0	n/a	338705	KeyDown	41324	4	Index	28
564.6983333333334	0	n/a	338820	KeyDown	41324	1	Little	28
565.2483333333333	0	n/a	339150	KeyDown	41324	3	Middle	28
565.4016666666668	0	n/a	339242	KeyDown	41324	2	Ring	28
565.7283333333334	0	n/a	339438	KeyDown	41324	4	Index	28
566.2466666666667	0	n/a	339749	KeyDown	41324	4	Index	28
566.4500000000000	0	n/a	339871	KeyDown	41324	1	Little	28
566.7366666666667	0	n/a	340043	KeyDown	41324	3	Middle	28
566.9216666666667	0	n/a	340154	KeyDown	41324	2	Ring	28
567.2516666666667	0	n/a	340352	KeyDown	41324	4	Index	28
567.6350000000000	0	n/a	340582	KeyDown	41324	4	Index	28
567.8516666666667	0	n/a	340712	KeyDown	41324	1	Little	28
568.6383333333333	0	n/a	341184	StopPractice	41324	n/a	n/a	28
568.6400000000000	0	n/a	341185	StartRest	XXXXX	n/a	n/a	28
578.6716666666667	0	n/a	347204	StopRest	XXXXX	n/a	n/a	28
578.6733333333334	0	UPPT001	347205	StartPractice	41324	n/a	n/a	29
579.6733333333334	0	n/a	347805	KeyDown	41324	4	Index	29
579.9100000000001	0	n/a	347947	KeyDown	41324	1	Little	29
580.1566666666668	0	n/a	348095	KeyDown	41324	3	Middle	29
580.3250000000000	0	n/a	348196	KeyDown	41324	2	Ring	29
580.5450000000001	0	n/a	348328	KeyDown	41324	4	Index	29
580.8600000000000	0	n/a	348517	KeyDown	41324	4	Index	29
581.1100000000000	0	n/a	348667	KeyDown	41324	1	Little	29
581.4133333333334	0	n/a	348849	KeyDown	41324	3	Middle	29
581.5916666666667	0	n/a	348956	KeyDown	41324	2	Ring	29
581.9050000000001	0	n/a	349144	KeyDown	41324	4	Index	29
582.3283333333334	0	n/a	349398	KeyDown	41324	4	Index	29
582.5383333333334	0	n/a	349524	KeyDown	41324	1	Little	29
582.8766666666667	0	n/a	349727	KeyDown	41324	3	Middle	29
583.0000000000000	0	n/a	349801	KeyDown	41324	2	Ring	29
583.2833333333334	0	n/a	349971	KeyDown	41324	4	Index	29
583.6233333333333	0	n/a	350175	KeyDown	41324	4	Index	29
583.9233333333334	0	n/a	350355	KeyDown	41324	1	Little	29
584.2800000000001	0	n/a	350569	KeyDown	41324	3	Middle	29
584.3966666666668	0	n/a	350639	KeyDown	41324	2	Ring	29
584.7100000000000	0	n/a	350827	KeyDown	41324	4	Index	29
585.0916666666667	0	n/a	351056	KeyDown	41324	4	Index	29
585.4416666666667	0	n/a	351266	KeyDown	41324	1	Little	29
585.7750000000001	0	n/a	351466	KeyDown	41324	3	Middle	29
585.8900000000000	0	n/a	351535	KeyDown	41324	2	Ring	29
586.2316666666667	0	n/a	351740	KeyDown	41324	4	Index	29
586.6350000000000	0	n/a	351982	KeyDown	41324	4	Index	29
586.9516666666667	0	n/a	352172	KeyDown	41324	3	Middle	29
587.1550000000001	0	n/a	352294	KeyDown	41324	2	Ring	29
587.9683333333334	0	n/a	352782	KeyDown	41324	4	Index	29
588.1450000000000	0	n/a	352888	KeyDown	41324	1	Little	29
588.4666666666667	0	n/a	353081	KeyDown	41324	3	Middle	29
588.5850000000000	0	n/a	353152	KeyDown	41324	2	Ring	29
588.7116666666667	0	n/a	353228	StopPractice	41324	n/a	n/a	29
588.7133333333334	0	n/a	353229	StartRest	XXXXX	n/a	n/a	29
598.7483333333333	0	n/a	359250	StopRest	XXXXX	n/a	n/a	29
598.7500000000000	0	UPPT001	359251	StartPractice	41324	n/a	n/a	30
599.2716666666668	0	n/a	359564	KeyDown	41324	4	Index	30
599.4916666666667	0	n/a	359696	KeyDown	41324	1	Little	30
599.7733333333334	0	n/a	359865	KeyDown	41324	3	Middle	30
599.9016666666668	0	n/a	359942	KeyDown	41324	2	Ring	30
600.2316666666667	0	n/a	360140	KeyDown	41324	4	Index	30
600.7166666666667	0	n/a	360431	KeyDown	41324	4	Index	30
600.9083333333334	0	n/a	360546	KeyDown	41324	1	Little	30
601.2616666666667	0	n/a	360758	KeyDown	41324	3	Middle	30
601.3983333333334	0	n/a	360840	KeyDown	41324	2	Ring	30
601.7133333333334	0	n/a	361029	KeyDown	41324	4	Index	30
602.2183333333334	0	n/a	361332	KeyDown	41324	4	Index	30
602.5516666666667	0	n/a	361532	KeyDown	41324	1	Little	30
603.1750000000001	0	n/a	361906	KeyDown	41324	3	Middle	30
603.3050000000001	0	n/a	361984	KeyDown	41324	2	Ring	30
603.6516666666668	0	n/a	362192	KeyDown	41324	4	Index	30
604.0966666666667	0	n/a	362459	KeyDown	41324	4	Index	30
604.3450000000000	0	n/a	362608	KeyDown	41324	1	Little	30
604.7483333333333	0	n/a	362850	KeyDown	41324	3	Middle	30
604.8883333333333	0	n/a	362934	KeyDown	41324	2	Ring	30
605.4383333333334	0	n/a	363264	KeyDown	41324	4	Index	30
605.8533333333334	0	n/a	363513	KeyDown	41324	4	Index	30
605.9950000000000	0	n/a	363598	KeyDown	41324	1	Little	30
606.4333333333334	0	n/a	363861	KeyDown	41324	3	Middle	30
606.5766666666667	0	n/a	363947	KeyDown	41324	2	Ring	30
607.8566666666667	0	n/a	364715	KeyDown	41324	4	Index	30
608.2833333333334	0	n/a	364971	KeyDown	41324	4	Index	30
608.5750000000000	0	n/a	365146	KeyDown	41324	1	Little	30
608.7883333333334	0	n/a	365274	StopPractice	41324	n/a	n/a	30
608.7900000000001	0	n/a	365275	StartRest	XXXXX	n/a	n/a	30
618.8233333333334	0	n/a	371295	StopRest	XXXXX	n/a	n/a	30
618.8250000000000	0	UPPT001	371296	StartPractice	41324	n/a	n/a	31
619.3733333333333	0	n/a	371625	KeyDown	41324	4	Index	31
619.6016666666667	0	n/a	371762	KeyDown	41324	1	Little	31
619.8916666666667	0	n/a	371936	KeyDown	41324	3	Middle	31
620.0083333333333	0	n/a	372006	KeyDown	41324	2	Ring	31
620.3216666666667	0	n/a	372194	KeyDown	41324	4	Index	31
620.6366666666667	0	n/a	372383	KeyDown	41324	4	Index	31
620.8583333333333	0	n/a	372516	KeyDown	41324	1	Little	31
621.1983333333334	0	n/a	372720	KeyDown	41324	3	Middle	31
621.3066666666667	0	n/a	372785	KeyDown	41324	2	Ring	31
621.5766666666667	0	n/a	372947	KeyDown	41324	4	Index	31
621.9416666666667	0	n/a	373166	KeyDown	41324	4	Index	31
622.1333333333333	0	n/a	373281	KeyDown	41324	1	Little	31
622.4516666666667	0	n/a	373472	KeyDown	41324	3	Middle	31
622.5650000000001	0	n/a	373540	KeyDown	41324	2	Ring	31
622.9966666666667	0	n/a	373799	KeyDown	41324	4	Index	31
623.5533333333334	0	n/a	374133	KeyDown	41324	4	Index	31
623.7766666666668	0	n/a	374267	KeyDown	41324	1	Little	31
624.1083333333333	0	n/a	374466	KeyDown	41324	3	Middle	31
624.2300000000000	0	n/a	374539	KeyDown	41324	2	Ring	31
624.5783333333334	0	n/a	374748	KeyDown	41324	4	Index	31
625.0250000000001	0	n/a	375016	KeyDown	41324	4	Index	31
625.2683333333333	0	n/a	375162	KeyDown	41324	1	Little	31
625.6683333333334	0	n/a	375402	KeyDown	41324	3	Middle	31
625.7933333333334	0	n/a	375477	KeyDown	41324	2	Ring	31
626.1683333333334	0	n/a	375702	KeyDown	41324	4	Index	31
626.5466666666667	0	n/a	375929	KeyDown	41324	4	Index	31
626.8300000000000	0	n/a	376099	KeyDown	41324	1	Little	31
627.3400000000000	0	n/a	376405	KeyDown	41324	3	Middle	31
627.4800000000000	0	n/a	376489	KeyDown	41324	2	Ring	31
627.8983333333334	0	n/a	376740	KeyDown	41324	4	Index	31
628.2666666666667	0	n/a	376961	KeyDown	41324	1	Little	31
628.8633333333333	0	n/a	377319	StopPractice	41324	n/a	n/a	31
628.8650000000000	0	n/a	377320	StartRest	XXXXX	n/a	n/a	31
638.8966666666668	0	n/a	383339	StopRest	XXXXX	n/a	n/a	31
638.8983333333334	0	UPPT001	383340	StartPractice	41324	n/a	n/a	32
639.4550000000000	0	n/a	383674	KeyDown	41324	4	Index	32
639.6416666666667	0	n/a	383786	KeyDown	41324	1	Little	32
639.9516666666667	0	n/a	383972	KeyDown	41324	3	Middle	32
640.0666666666667	0	n/a	384041	KeyDown	41324	2	Ring	32
640.4133333333334	0	n/a	384249	KeyDown	41324	4	Index	32
640.7333333333333	0	n/a	384441	KeyDown	41324	4	Index	32
640.9100000000001	0	n/a	384547	KeyDown	41324	1	Little	32
641.2700000000001	0	n/a	384763	KeyDown	41324	3	Middle	32
641.4066666666668	0	n/a	384845	KeyDown	41324	2	Ring	32
641.7766666666668	0	n/a	385067	KeyDown	41324	1	Little	32
642.5500000000001	0	n/a	385531	KeyDown	41324	4	Index	32
642.9166666666667	0	n/a	385751	KeyDown	41324	4	Index	32
643.0500000000001	0	n/a	385831	KeyDown	41324	1	Little	32
643.4350000000001	0	n/a	386062	KeyDown	41324	3	Middle	32
643.5433333333334	0	n/a	386127	KeyDown	41324	2	Ring	32
644.1266666666667	0	n/a	386477	KeyDown	41324	4	Index	32
644.4716666666667	0	n/a	386684	KeyDown	41324	4	Index	32
644.7750000000001	0	n/a	386866	KeyDown	41324	1	Little	32
645.3000000000001	0	n/a	387181	KeyDown	41324	3	Middle	32
645.4250000000001	0	n/a	387256	KeyDown	41324	2	Ring	32
645.7300000000000	0	n/a	387439	KeyDown	41324	4	Index	32
646.1516666666668	0	n/a	387692	KeyDown	41324	4	Index	32
646.3900000000000	0	n/a	387835	KeyDown	41324	1	Little	32
646.8683333333333	0	n/a	388122	KeyDown	41324	3	Middle	32
647.0516666666667	0	n/a	388232	KeyDown	41324	2	Ring	32
647.3233333333334	0	n/a	388395	KeyDown	41324	4	Index	32
647.6850000000001	0	n/a	388612	KeyDown	41324	4	Index	32
647.8700000000000	0	n/a	388723	KeyDown	41324	1	Little	32
648.2700000000001	0	n/a	388963	KeyDown	41324	3	Middle	32
648.3733333333333	0	n/a	389025	KeyDown	41324	2	Ring	32
648.6966666666667	0	n/a	389219	KeyDown	41324	4	Index	32
648.9366666666667	0	n/a	389363	StopPractice	41324	n/a	n/a	32
648.9383333333334	0	n/a	389364	StartRest	XXXXX	n/a	n/a	32
658.9716666666667	0	n/a	395384	StopRest	XXXXX	n/a	n/a	32
658.9733333333334	0	UPPT001	395385	StartPractice	41324	n/a	n/a	33
659.4116666666667	0	n/a	395648	KeyDown	41324	4	Index	33
659.5966666666667	0	n/a	395759	KeyDown	41324	1	Little	33
659.8883333333333	0	n/a	395934	KeyDown	41324	3	Middle	33
660.0183333333334	0	n/a	396012	KeyDown	41324	2	Ring	33
660.3400000000000	0	n/a	396205	KeyDown	41324	4	Index	33
660.6816666666667	0	n/a	396410	KeyDown	41324	4	Index	33
660.8916666666668	0	n/a	396536	KeyDown	41324	1	Little	33
661.2300000000000	0	n/a	396739	KeyDown	41324	3	Middle	33
661.3450000000000	0	n/a	396808	KeyDown	41324	2	Ring	33
661.6166666666667	0	n/a	396971	KeyDown	41324	4	Index	33
661.9866666666667	0	n/a	397193	KeyDown	41324	4	Index	33
662.2100000000000	0	n/a	397327	KeyDown	41324	1	Little	33
662.5466666666667	0	n/a	397529	KeyDown	41324	3	Middle	33
662.6583333333334	0	n/a	397596	KeyDown	41324	2	Ring	33
662.9800000000000	0	n/a	397789	KeyDown	41324	4	Index	33
663.4400000000001	0	n/a	398065	KeyDown	41324	4	Index	33
663.8116666666667	0	n/a	398288	KeyDown	41324	1	Little	33
664.2116666666667	0	n/a	398528	KeyDown	41324	3	Middle	33
664.3450000000000	0	n/a	398608	KeyDown	41324	2	Ring	33
664.6533333333334	0	n/a	398793	KeyDown	41324	4	Index	33
665.1850000000001	0	n/a	399112	KeyDown	41324	4	Index	33
665.5816666666667	0	n/a	399350	KeyDown	41324	1	Little	33
665.9700000000000	0	n/a	399583	KeyDown	41324	3	Middle	33
666.0633333333334	0	n/a	399639	KeyDown	41324	2	Ring	33
666.3816666666667	0	n/a	399830	KeyDown	41324	4	Index	33
666.8433333333334	0	n/a	400107	KeyDown	41324	4	Index	33
667.0650000000001	0	n/a	400240	KeyDown	41324	1	Little	33
667.4616666666667	0	n/a	400478	KeyDown	41324	3	Middle	33
667.6716666666667	0	n/a	400604	KeyDown	41324	2	Ring	33
667.9116666666667	0	n/a	400748	KeyDown	41324	4	Index	33
668.5850000000000	0	n/a	401152	KeyDown	41324	4	Index	33
669.0116666666667	0	n/a	401408	StopPractice	41324	n/a	n/a	33
669.0133333333333	0	n/a	401409	StartRest	XXXXX	n/a	n/a	33
679.0466666666667	0	n/a	407429	StopRest	XXXXX	n/a	n/a	33
679.0483333333334	0	UPPT001	407430	StartPractice	41324	n/a	n/a	34
679.5450000000001	0	n/a	407728	KeyDown	41324	4	Index	34
679.7833333333334	0	n/a	407871	KeyDown	41324	1	Little	34
680.0733333333334	0	n/a	408045	KeyDown	41324	3	Middle	34
680.2016666666667	0	n/a	408122	KeyDown	41324	2	Ring	34
680.5183333333334	0	n/a	408312	KeyDown	41324	4	Index	34
680.7950000000001	0	n/a	408478	KeyDown	41324	4	Index	34
681.0016666666667	0	n/a	408602	KeyDown	41324	1	Little	34
681.3250000000000	0	n/a	408796	KeyDown	41324	3	Middle	34
681.4366666666667	0	n/a	408863	KeyDown	41324	2	Ring	34
681.7366666666667	0	n/a	409043	KeyDown	41324	4	Index	34
682.0950000000000	0	n/a	409258	KeyDown	41324	4	Index	34
682.2816666666668	0	n/a	409370	KeyDown	41324	1	Little	34
682.7366666666667	0	n/a	409643	KeyDown	41324	3	Middle	34
682.8216666666667	0	n/a	409694	KeyDown	41324	2	Ring	34
683.0933333333334	0	n/a	409857	KeyDown	41324	4	Index	34
683.4000000000001	0	n/a	410041	KeyDown	41324	4	Index	34
683.6600000000001	0	n/a	410197	KeyDown	41324	1	Little	34
684.0100000000000	0	n/a	410407	KeyDown	41324	3	Middle	34
684.1233333333333	0	n/a	410475	KeyDown	41324	2	Ring	34
684.4083333333334	0	n/a	410646	KeyDown	41324	4	Index	34
684.7600000000000	0	n/a	410857	KeyDown	41324	4	Index	34
685.1833333333334	0	n/a	411111	KeyDown	41324	1	Little	34
685.6150000000000	0	n/a	411370	KeyDown	41324	3	Middle	34
685.7000000000000	0	n/a	411421	KeyDown	41324	2	Ring	34
685.9966666666667	0	n/a	411599	KeyDown	41324	4	Index	34
686.5316666666668	0	n/a	411920	KeyDown	41324	4	Index	34
686.7483333333333	0	n/a	412050	KeyDown	41324	1	Little	34
687.1950000000001	0	n/a	412318	KeyDown	41324	3	Middle	34
687.3700000000000	0	n/a	412423	KeyDown	41324	2	Ring	34
688.1000000000000	0	n/a	412861	KeyDown	41324	4	Index	34
688.7516666666667	0	n/a	413252	KeyDown	41324	4	Index	34
688.8966666666668	0	n/a	413339	KeyDown	41324	1	Little	34
689.0866666666667	0	n/a	413453	StopPractice	41324	n/a	n/a	34
689.0883333333334	0	n/a	413454	StartRest	XXXXX	n/a	n/a	34
699.1216666666667	0	n/a	419474	StopRest	XXXXX	n/a	n/a	34
699.1233333333333	0	UPPT001	419475	StartPractice	41324	n/a	n/a	35
699.6783333333334	0	n/a	419808	KeyDown	41324	4	Index	35
699.8816666666667	0	n/a	419930	KeyDown	41324	1	Little	35
700.1950000000001	0	n/a	420118	KeyDown	41324	3	Middle	35
700.2933333333334	0	n/a	420177	KeyDown	41324	2	Ring	35
700.5850000000000	0	n/a	420352	KeyDown	41324	4	Index	35
700.8516666666667	0	n/a	420512	KeyDown	41324	4	Index	35
701.0216666666668	0	n/a	420614	KeyDown	41324	1	Little	35
701.3566666666667	0	n/a	420815	KeyDown	41324	3	Middle	35
701.4500000000000	0	n/a	420871	KeyDown	41324	2	Ring	35
701.7216666666667	0	n/a	421034	KeyDown	41324	4	Index	35
702.0400000000001	0	n/a	421225	KeyDown	41324	4	Index	35
702.2416666666667	0	n/a	421346	KeyDown	41324	1	Little	35
702.6116666666667	0	n/a	421568	KeyDown	41324	3	Middle	35
702.7300000000000	0	n/a	421639	KeyDown	41324	2	Ring	35
702.9800000000000	0	n/a	421789	KeyDown	41324	4	Index	35
703.3700000000000	0	n/a	422023	KeyDown	41324	4	Index	35
703.5833333333334	0	n/a	422151	KeyDown	41324	1	Little	35
704.0166666666668	0	n/a	422411	KeyDown	41324	3	Middle	35
704.1783333333334	0	n/a	422508	KeyDown	41324	2	Ring	35
704.4650000000000	0	n/a	422680	KeyDown	41324	4	Index	35
704.8366666666667	0	n/a	422903	KeyDown	41324	4	Index	35
705.1066666666667	0	n/a	423065	KeyDown	41324	1	Little	35
705.5783333333334	0	n/a	423348	KeyDown	41324	3	Middle	35
705.6600000000001	0	n/a	423397	KeyDown	41324	2	Ring	35
705.9600000000000	0	n/a	423577	KeyDown	41324	4	Index	35
706.3550000000000	0	n/a	423814	KeyDown	41324	4	Index	35
706.6466666666668	0	n/a	423989	KeyDown	41324	1	Little	35
707.1766666666667	0	n/a	424307	KeyDown	41324	3	Middle	35
707.2966666666667	0	n/a	424379	KeyDown	41324	2	Ring	35
707.6200000000000	0	n/a	424573	KeyDown	41324	4	Index	35
708.0616666666667	0	n/a	424838	KeyDown	41324	4	Index	35
708.3950000000001	0	n/a	425038	KeyDown	41324	1	Little	35
708.7766666666668	0	n/a	425267	KeyDown	41324	3	Middle	35
708.9016666666668	0	n/a	425342	KeyDown	41324	2	Ring	35
709.1616666666667	0	n/a	425498	StopPractice	41324	n/a	n/a	35
709.1633333333334	0	n/a	425499	StartRest	XXXXX	n/a	n/a	35
719.1966666666667	0	n/a	431519	StopRest	XXXXX	n/a	n/a	35
719.1983333333334	0	UPPT001	431520	StartPractice	41324	n/a	n/a	36
719.7166666666667	0	n/a	431831	KeyDown	41324	4	Index	36
719.9683333333334	0	n/a	431982	KeyDown	41324	1	Little	36
720.3200000000001	0	n/a	432193	KeyDown	41324	3	Middle	36
720.4316666666667	0	n/a	432260	KeyDown	41324	2	Ring	36
720.7266666666667	0	n/a	432437	KeyDown	41324	4	Index	36
721.0450000000001	0	n/a	432628	KeyDown	41324	4	Index	36
721.3050000000001	0	n/a	432784	KeyDown	41324	1	Little	36
721.6266666666667	0	n/a	432977	KeyDown	41324	3	Middle	36
721.7683333333334	0	n/a	433062	KeyDown	41324	2	Ring	36
722.0500000000001	0	n/a	433231	KeyDown	41324	4	Index	36
722.4133333333334	0	n/a	433449	KeyDown	41324	4	Index	36
722.6900000000001	0	n/a	433615	KeyDown	41324	1	Little	36
722.9666666666667	0	n/a	433781	KeyDown	41324	3	Middle	36
723.1066666666667	0	n/a	433865	KeyDown	41324	2	Ring	36
723.4700000000000	0	n/a	434083	KeyDown	41324	4	Index	36
723.8733333333333	0	n/a	434325	KeyDown	41324	4	Index	36
724.0766666666667	0	n/a	434447	KeyDown	41324	1	Little	36
724.4216666666667	0	n/a	434654	KeyDown	41324	3	Middle	36
724.5266666666668	0	n/a	434717	KeyDown	41324	2	Ring	36
724.8200000000001	0	n/a	434893	KeyDown	41324	4	Index	36
725.1800000000001	0	n/a	435109	KeyDown	41324	4	Index	36
725.5033333333333	0	n/a	435303	KeyDown	41324	1	Little	36
725.8916666666668	0	n/a	435536	KeyDown	41324	3	Middle	36
726.0650000000001	0	n/a	435640	KeyDown	41324	2	Ring	36
726.3616666666667	0	n/a	435818	KeyDown	41324	4	Index	36
726.9066666666668	0	n/a	436145	KeyDown	41324	4	Index	36
727.0816666666667	0	n/a	436250	KeyDown	41324	1	Little	36
727.3683333333333	0	n/a	436422	KeyDown	41324	3	Middle	36
727.5000000000000	0	n/a	436501	KeyDown	41324	2	Ring	36
727.7666666666668	0	n/a	436661	KeyDown	41324	4	Index	36
728.3250000000000	0	n/a	436996	KeyDown	41324	4	Index	36
728.6150000000000	0	n/a	437170	KeyDown	41324	1	Little	36
729.2366666666667	0	n/a	437543	StopPractice	41324	n/a	n/a	36
729.2383333333333	0	n/a	437544	StartRest	XXXXX	n/a	n/a	36
739.2733333333334	0	n/a	443565	StopRest	XXXXX	n/a	n/a	36
