onset	duration	channel	onset_sample_idx	event_type	target_sequence	keypress_id	finger_label	trial_number
25.0116666666667	0	UPPT001	15008	StartPractice	41324	n/a	n/a	1
31.1416666666667	0	n/a	18686	KeyDown	41324	4	Index	1
31.6583333333333	0	n/a	18996	KeyDown	41324	1	Little	1
32.0450000000000	0	n/a	19228	KeyDown	41324	3	Middle	1
32.5450000000000	0	n/a	19528	KeyDown	41324	2	Ring	1
33.5766666666667	0	n/a	20147	KeyDown	41324	4	Index	1
35.0500000000000	0	n/a	21031	StopPractice	41324	n/a	n/a	1
35.0516666666667	0	n/a	21032	StartRest	XXXXX	n/a	n/a	1
45.0833333333333	0	n/a	27051	StopRest	XXXXX	n/a	n/a	1
45.0850000000000	0	UPPT001	27052	StartPractice	41324	n/a	n/a	2
45.5966666666667	0	n/a	27359	KeyDown	41324	4	Index	2
45.9350000000000	0	n/a	27562	KeyDown	41324	1	Little	2
46.3466666666667	0	n/a	27809	KeyDown	41324	3	Middle	2
46.6550000000000	0	n/a	27994	KeyDown	41324	2	Ring	2
46.8933333333333	0	n/a	28137	KeyDown	41324	4	Index	2
47.2583333333333	0	n/a	28356	KeyDown	41324	4	Index	2
47.6500000000000	0	n/a	28591	KeyDown	41324	1	Little	2
48.1733333333333	0	n/a	28905	KeyDown	41324	3	Middle	2
48.4966666666667	0	n/a	29099	KeyDown	41324	2	Ring	2
48.7416666666667	0	n/a	29246	KeyDown	41324	4	Index	2
49.1033333333333	0	n/a	29463	KeyDown	41324	4	Index	2
49.7466666666667	0	n/a	29849	KeyDown	41324	1	Little	2
50.0766666666667	0	n/a	30047	KeyDown	41324	3	Middle	2
50.4916666666667	0	n/a	30296	KeyDown	41324	2	Ring	2
50.7583333333333	0	n/a	30456	KeyDown	41324	4	Index	2
51.0966666666667	0	n/a	30659	KeyDown	41324	4	Index	2
51.5966666666667	0	n/a	30959	KeyDown	41324	1	Little	2
52.1933333333333	0	n/a	31317	KeyDown	41324	3	Middle	2
52.4483333333333	0	n/a	31470	KeyDown	41324	2	Ring	2
53.0333333333333	0	n/a	31821	KeyDown	41324	4	Index	2
54.7166666666667	0	n/a	32831	KeyDown	41324	4	Index	2
55.1233333333333	0	n/a	33075	StopPractice	41324	n/a	n/a	2
55.1250000000000	0	n/a	33076	StartRest	XXXXX	n/a	n/a	2
65.1583333333333	0	n/a	39096	StopRest	XXXXX	n/a	n/a	2
65.1600000000000	0	UPPT001	39097	StartPractice	41324	n/a	n/a	3
65.7033333333333	0	n/a	39423	KeyDown	41324	4	Index	3
66.1083333333333	0	n/a	39666	KeyDown	41324	1	Little	3
66.4383333333333	0	n/a	39864	KeyDown	41324	3	Middle	3
66.6916666666667	0	n/a	40016	KeyDown	41324	2	Ring	3
66.9316666666667	0	n/a	40160	KeyDown	41324	4	Index	3
67.2183333333333	0	n/a	40332	KeyDown	41324	4	Index	3
67.4716666666667	0	n/a	40484	KeyDown	41324	1	Little	3
67.7900000000000	0	n/a	40675	KeyDown	41324	3	Middle	3
68.0066666666667	0	n/a	40805	KeyDown	41324	2	Ring	3
68.2483333333333	0	n/a	40950	KeyDown	41324	4	Index	3
68.5183333333333	0	n/a	41112	KeyDown	41324	4	Index	3
68.7833333333333	0	n/a	41271	KeyDown	41324	1	Little	3
69.0783333333333	0	n/a	41448	KeyDown	41324	3	Middle	3
69.3000000000000	0	n/a	41581	KeyDown	41324	2	Ring	3
69.5566666666667	0	n/a	41735	KeyDown	41324	4	Index	3
69.8033333333333	0	n/a	41883	KeyDown	41324	4	Index	3
70.0933333333333	0	n/a	42057	KeyDown	41324	1	Little	3
70.5116666666667	0	n/a	42308	KeyDown	41324	3	Middle	3
70.7383333333333	0	n/a	42444	KeyDown	41324	2	Ring	3
70.9716666666667	0	n/a	42584	KeyDown	41324	4	Index	3
71.2116666666667	0	n/a	42728	KeyDown	41324	4	Index	3
71.5516666666667	0	n/a	42932	KeyDown	41324	1	Little	3
71.9083333333333	0	n/a	43146	KeyDown	41324	3	Middle	3
72.1233333333333	0	n/a	43275	KeyDown	41324	2	Ring	3
72.3316666666667	0	n/a	43400	KeyDown	41324	4	Index	3
72.5983333333333	0	n/a	43560	KeyDown	41324	4	Index	3
72.8700000000000	0	n/a	43723	KeyDown	41324	1	Little	3
73.1016666666667	0	n/a	43862	KeyDown	41324	3	Middle	3
73.3283333333333	0	n/a	43998	KeyDown	41324	2	Ring	3
73.6783333333333	0	n/a	44208	KeyDown	41324	4	Index	3
73.9433333333333	0	n/a	44367	KeyDown	41324	4	Index	3
74.2833333333333	0	n/a	44571	KeyDown	41324	1	Little	3
74.5916666666667	0	n/a	44756	KeyDown	41324	4	Index	3
75.1983333333333	0	n/a	45120	StopPractice	41324	n/a	n/a	3
75.2000000000000	0	n/a	45121	StartRest	XXXXX	n/a	n/a	3
85.2333333333333	0	n/a	51141	StopRest	XXXXX	n/a	n/a	3
85.2350000000000	0	UPPT001	51142	StartPractice	41324	n/a	n/a	4
85.6183333333333	0	n/a	51372	KeyDown	41324	4	Index	4
85.8483333333333	0	n/a	51510	KeyDown	41324	1	Little	4
86.0983333333333	0	n/a	51660	KeyDown	41324	3	Middle	4
86.3266666666667	0	n/a	51797	KeyDown	41324	2	Ring	4
86.5183333333333	0	n/a	51912	KeyDown	41324	4	Index	4
86.7716666666667	0	n/a	52064	KeyDown	41324	4	Index	4
87.0666666666667	0	n/a	52241	KeyDown	41324	1	Little	4
87.3333333333333	0	n/a	52401	KeyDown	41324	3	Middle	4
87.5750000000000	0	n/a	52546	KeyDown	41324	2	Ring	4
87.7916666666667	0	n/a	52676	KeyDown	41324	4	Index	4
88.0300000000000	0	n/a	52819	KeyDown	41324	4	Index	4
88.3066666666667	0	n/a	52985	KeyDown	41324	1	Little	4
88.5750000000000	0	n/a	53146	KeyDown	41324	3	Middle	4
88.8050000000000	0	n/a	53284	KeyDown	41324	2	Ring	4
89.0133333333333	0	n/a	53409	KeyDown	41324	4	Index	4
89.2433333333333	0	n/a	53547	KeyDown	41324	4	Index	4
89.4716666666667	0	n/a	53684	KeyDown	41324	1	Little	4
89.7366666666667	0	n/a	53843	KeyDown	41324	3	Middle	4
89.9266666666667	0	n/a	53957	KeyDown	41324	2	Ring	4
90.1533333333333	0	n/a	54093	KeyDown	41324	4	Index	4
90.3583333333333	0	n/a	54216	KeyDown	41324	4	Index	4
90.7933333333333	0	n/a	54477	KeyDown	41324	1	Little	4
91.1666666666667	0	n/a	54701	KeyDown	41324	3	Middle	4
91.4133333333333	0	n/a	54849	KeyDown	41324	2	Ring	4
91.6466666666667	0	n/a	54989	KeyDown	41324	4	Index	4
91.9233333333333	0	n/a	55155	KeyDown	41324	4	Index	4
92.2383333333333	0	n/a	55344	KeyDown	41324	1	Little	4
92.5266666666667	0	n/a	55517	KeyDown	41324	3	Middle	4
92.7283333333333	0	n/a	55638	KeyDown	41324	2	Ring	4
92.9283333333333	0	n/a	55758	KeyDown	41324	4	Index	4
93.1516666666667	0	n/a	55892	KeyDown	41324	4	Index	4
93.3766666666667	0	n/a	56027	KeyDown	41324	1	Little	4
93.6100000000000	0	n/a	56167	KeyDown	41324	3	Middle	4
93.8116666666667	0	n/a	56288	KeyDown	41324	2	Ring	4
94.2833333333333	0	n/a	56571	KeyDown	41324	4	Index	4
94.5583333333333	0	n/a	56736	KeyDown	41324	4	Index	4
95.2733333333333	0	n/a	57165	StopPractice	41324	n/a	n/a	4
95.2750000000000	0	n/a	57166	StartRest	XXXXX	n/a	n/a	4
105.3083333333333	0	n/a	63186	StopRest	XXXXX	n/a	n/a	4
105.3100000000000	0	UPPT001	63187	StartPractice	41324	n/a	n/a	5
105.7433333333333	0	n/a	63447	KeyDown	41324	4	Index	5
105.9733333333333	0	n/a	63585	KeyDown	41324	1	Little	5
106.2266666666667	0	n/a	63737	KeyDown	41324	3	Middle	5
106.4666666666667	0	n/a	63881	KeyDown	41324	2	Ring	5
106.6633333333333	0	n/a	63999	KeyDown	41324	4	Index	5
106.9016666666667	0	n/a	64142	KeyDown	41324	4	Index	5
107.1216666666667	0	n/a	64274	KeyDown	41324	1	Little	5
107.3916666666667	0	n/a	64436	KeyDown	41324	3	Middle	5
107.6600000000000	0	n/a	64597	KeyDown	41324	2	Ring	5
107.9833333333333	0	n/a	64791	KeyDown	41324	4	Index	5
108.3016666666667	0	n/a	64982	KeyDown	41324	4	Index	5
108.5600000000000	0	n/a	65137	KeyDown	41324	1	Little	5
108.8383333333333	0	n/a	65304	KeyDown	41324	3	Middle	5
109.0850000000000	0	n/a	65452	KeyDown	41324	2	Ring	5
109.3183333333333	0	n/a	65592	KeyDown	41324	4	Index	5
109.5483333333333	0	n/a	65730	KeyDown	41324	4	Index	5
109.8000000000000	0	n/a	65881	KeyDown	41324	1	Little	5
110.0633333333333	0	n/a	66039	KeyDown	41324	3	Middle	5
110.3266666666667	0	n/a	66197	KeyDown	41324	2	Ring	5
110.5533333333333	0	n/a	66333	KeyDown	41324	4	Index	5
110.7783333333333	0	n/a	66468	KeyDown	41324	4	Index	5
111.0333333333333	0	n/a	66621	KeyDown	41324	1	Little	5
111.4116666666667	0	n/a	66848	KeyDown	41324	3	Middle	5
111.6466666666667	0	n/a	66989	KeyDown	41324	2	Ring	5
111.8600000000000	0	n/a	67117	KeyDown	41324	4	Index	5
112.0916666666667	0	n/a	67256	KeyDown	41324	4	Index	5
112.3933333333333	0	n/a	67437	KeyDown	41324	1	Little	5
112.8116666666667	0	n/a	67688	KeyDown	41324	3	Middle	5
113.0800000000000	0	n/a	67849	KeyDown	41324	2	Ring	5
113.3383333333333	0	n/a	68004	KeyDown	41324	4	Index	5
113.6033333333333	0	n/a	68163	KeyDown	41324	4	Index	5
113.8416666666667	0	n/a	68306	KeyDown	41324	1	Little	5
114.0983333333333	0	n/a	68460	KeyDown	41324	3	Middle	5
114.3033333333333	0	n/a	68583	KeyDown	41324	2	Ring	5
114.5183333333333	0	n/a	68712	KeyDown	41324	4	Index	5
114.7166666666667	0	n/a	68831	KeyDown	41324	4	Index	5
114.9616666666667	0	n/a	68978	KeyDown	41324	1	Little	5
115.2233333333333	0	n/a	69135	KeyDown	41324	3	Middle	5
115.3483333333333	0	n/a	69210	StopPractice	41324	n/a	n/a	5
115.3500000000000	0	n/a	69211	StartRest	XXXXX	n/a	n/a	5
125.3816666666667	0	n/a	75230	StopRest	XXXXX	n/a	n/a	5
125.3833333333333	0	UPPT001	75231	StartPractice	41324	n/a	n/a	6
126.3416666666667	0	n/a	75806	KeyDown	41324	4	Index	6
126.7300000000000	0	n/a	76039	KeyDown	41324	1	Little	6
127.0650000000000	0	n/a	76240	KeyDown	41324	3	Middle	6
127.3133333333333	0	n/a	76389	KeyDown	41324	2	Ring	6
127.6450000000000	0	n/a	76588	KeyDown	41324	4	Index	6
128.0116666666667	0	n/a	76808	KeyDown	41324	4	Index	6
128.3833333333334	0	n/a	77031	KeyDown	41324	1	Little	6
128.7450000000000	0	n/a	77248	KeyDown	41324	3	Middle	6
128.9766666666667	0	n/a	77387	KeyDown	41324	2	Ring	6
129.2416666666667	0	n/a	77546	KeyDown	41324	4	Index	6
129.5083333333334	0	n/a	77706	KeyDown	41324	4	Index	6
129.7666666666667	0	n/a	77861	KeyDown	41324	1	Little	6
130.0483333333333	0	n/a	78030	KeyDown	41324	3	Middle	6
130.2450000000000	0	n/a	78148	KeyDown	41324	2	Ring	6
130.4816666666667	0	n/a	78290	KeyDown	41324	4	Index	6
130.7066666666667	0	n/a	78425	KeyDown	41324	4	Index	6
130.9600000000000	0	n/a	78577	KeyDown	41324	1	Little	6
131.2200000000000	0	n/a	78733	KeyDown	41324	3	Middle	6
131.4400000000000	0	n/a	78865	KeyDown	41324	2	Ring	6
131.8950000000000	0	n/a	79138	KeyDown	41324	4	Index	6
132.2333333333333	0	n/a	79341	KeyDown	41324	4	Index	6
132.4966666666667	0	n/a	79499	KeyDown	41324	1	Little	6
132.7433333333333	0	n/a	79647	KeyDown	41324	3	Middle	6
132.9550000000000	0	n/a	79774	KeyDown	41324	2	Ring	6
133.1416666666667	0	n/a	79886	KeyDown	41324	4	Index	6
133.3666666666667	0	n/a	80021	KeyDown	41324	4	Index	6
133.5950000000000	0	n/a	80158	KeyDown	41324	1	Little	6
133.8900000000000	0	n/a	80335	KeyDown	41324	3	Middle	6
134.1283333333333	0	n/a	80478	KeyDown	41324	2	Ring	6
134.3750000000000	0	n/a	80626	KeyDown	41324	4	Index	6
134.6150000000000	0	n/a	80770	KeyDown	41324	4	Index	6
134.8750000000000	0	n/a	80926	KeyDown	41324	1	Little	6
135.1416666666667	0	n/a	81086	KeyDown	41324	3	Middle	6
135.3316666666667	0	n/a	81200	KeyDown	41324	2	Ring	6
135.4216666666667	0	n/a	81254	StopPractice	41324	n/a	n/a	6
135.4233333333333	0	n/a	81255	StartRest	XXXXX	n/a	n/a	6
145.4583333333333	0	n/a	87276	StopRest	XXXXX	n/a	n/a	6
145.4600000000000	0	UPPT001	87277	StartPractice	41324	n/a	n/a	7
145.9133333333334	0	n/a	87549	KeyDown	41324	4	Index	7
146.1616666666667	0	n/a	87698	KeyDown	41324	1	Little	7
146.3816666666667	0	n/a	87830	KeyDown	41324	3	Middle	7
146.5950000000000	0	n/a	87958	KeyDown	41324	2	Ring	7
146.8266666666667	0	n/a	88097	KeyDown	41324	4	Index	7
147.0266666666667	0	n/a	88217	KeyDown	41324	4	Index	7
147.2450000000000	0	n/a	88348	KeyDown	41324	1	Little	7
147.4733333333333	0	n/a	88485	KeyDown	41324	3	Middle	7
147.6950000000000	0	n/a	88618	KeyDown	41324	2	Ring	7
147.9183333333334	0	n/a	88752	KeyDown	41324	4	Index	7
148.1166666666667	0	n/a	88871	KeyDown	41324	4	Index	7
148.3283333333333	0	n/a	88998	KeyDown	41324	1	Little	7
148.6366666666667	0	n/a	89183	KeyDown	41324	3	Middle	7
148.8400000000000	0	n/a	89305	KeyDown	41324	2	Ring	7
149.0383333333334	0	n/a	89424	KeyDown	41324	4	Index	7
149.2666666666667	0	n/a	89561	KeyDown	41324	4	Index	7
149.4900000000000	0	n/a	89695	KeyDown	41324	1	Little	7
149.7533333333333	0	n/a	89853	KeyDown	41324	3	Middle	7
149.9583333333333	0	n/a	89976	KeyDown	41324	2	Ring	7
150.1733333333333	0	n/a	90105	KeyDown	41324	4	Index	7
150.3683333333333	0	n/a	90222	KeyDown	41324	4	Index	7
150.8200000000000	0	n/a	90493	KeyDown	41324	1	Little	7
151.3233333333334	0	n/a	90795	KeyDown	41324	3	Middle	7
151.9966666666667	0	n/a	91199	KeyDown	41324	2	Ring	7
152.8533333333334	0	n/a	91713	KeyDown	41324	4	Index	7
153.2633333333333	0	n/a	91959	KeyDown	41324	4	Index	7
153.9566666666667	0	n/a	92375	KeyDown	41324	1	Little	7
154.2416666666667	0	n/a	92546	KeyDown	41324	3	Middle	7
154.4516666666667	0	n/a	92672	KeyDown	41324	2	Ring	7
154.7516666666667	0	n/a	92852	KeyDown	41324	4	Index	7
155.0116666666667	0	n/a	93008	KeyDown	41324	4	Index	7
155.3933333333333	0	n/a	93237	KeyDown	41324	1	Little	7
155.4983333333333	0	n/a	93300	StopPractice	41324	n/a	n/a	7
155.5000000000000	0	n/a	93301	StartRest	XXXXX	n/a	n/a	7
165.5316666666667	0	n/a	99320	StopRest	XXXXX	n/a	n/a	7
165.5333333333333	0	UPPT001	99321	StartPractice	41324	n/a	n/a	8
166.0100000000000	0	n/a	99607	KeyDown	41324	4	Index	8
166.2350000000000	0	n/a	99742	KeyDown	41324	1	Little	8
166.5016666666667	0	n/a	99902	KeyDown	41324	3	Middle	8
166.6900000000000	0	n/a	100015	KeyDown	41324	2	Ring	8
166.9083333333333	0	n/a	100146	KeyDown	41324	4	Index	8
167.1350000000000	0	n/a	100282	KeyDown	41324	4	Index	8
167.3333333333333	0	n/a	100401	KeyDown	41324	1	Little	8
167.6166666666667	0	n/a	100571	KeyDown	41324	3	Middle	8
167.8300000000000	0	n/a	100699	KeyDown	41324	2	Ring	8
168.1050000000000	0	n/a	100864	KeyDown	41324	4	Index	8
168.3800000000000	0	n/a	101029	KeyDown	41324	4	Index	8
168.6100000000000	0	n/a	101167	KeyDown	41324	1	Little	8
168.9366666666667	0	n/a	101363	KeyDown	41324	3	Middle	8
169.1383333333333	0	n/a	101484	KeyDown	41324	2	Ring	8
169.3400000000000	0	n/a	101605	KeyDown	41324	4	Index	8
169.6100000000000	0	n/a	101767	KeyDown	41324	4	Index	8
169.8400000000000	0	n/a	101905	KeyDown	41324	1	Little	8
170.2000000000000	0	n/a	102121	KeyDown	41324	3	Middle	8
170.4333333333333	0	n/a	102261	KeyDown	41324	2	Ring	8
170.6350000000000	0	n/a	102382	KeyDown	41324	4	Index	8
170.8900000000000	0	n/a	102535	KeyDown	41324	4	Index	8
171.1116666666667	0	n/a	102668	KeyDown	41324	1	Little	8
171.3816666666667	0	n/a	102830	KeyDown	41324	3	Middle	8
171.6083333333333	0	n/a	102966	KeyDown	41324	2	Ring	8
171.8450000000000	0	n/a	103108	KeyDown	41324	4	Index	8
172.0716666666667	0	n/a	103244	KeyDown	41324	4	Index	8
172.3316666666667	0	n/a	103400	KeyDown	41324	1	Little	8
172.7716666666667	0	n/a	103664	KeyDown	41324	3	Middle	8
173.0133333333333	0	n/a	103809	KeyDown	41324	2	Ring	8
173.2200000000000	0	n/a	103933	KeyDown	41324	4	Index	8
173.7833333333333	0	n/a	104271	KeyDown	41324	4	Index	8
174.0216666666667	0	n/a	104414	KeyDown	41324	1	Little	8
174.4666666666667	0	n/a	104681	KeyDown	41324	3	Middle	8
174.6516666666667	0	n/a	104792	KeyDown	41324	2	Ring	8
174.8266666666667	0	n/a	104897	KeyDown	41324	4	Index	8
175.2116666666667	0	n/a	105128	KeyDown	41324	4	Index	8
175.4866666666667	0	n/a	105293	KeyDown	41324	1	Little	8
175.5716666666667	0	n/a	105344	StopPractice	41324	n/a	n/a	8
175.5733333333334	0	n/a	105345	StartRest	XXXXX	n/a	n/a	8
185.6066666666667	0	n/a	111365	StopRest	XXXXX	n/a	n/a	8
185.6083333333333	0	UPPT001	111366	StartPractice	41324	n/a	n/a	9
185.9766666666667	0	n/a	111587	KeyDown	41324	4	Index	9
186.2850000000000	0	n/a	111772	KeyDown	41324	1	Little	9
186.5983333333334	0	n/a	111960	KeyDown	41324	3	Middle	9
186.8716666666667	0	n/a	112124	KeyDown	41324	2	Ring	9
187.1283333333334	0	n/a	112278	KeyDown	41324	4	Index	9
187.5916666666667	0	n/a	112556	KeyDown	41324	4	Index	9
187.9400000000000	0	n/a	112765	KeyDown	41324	1	Little	9
188.2200000000000	0	n/a	112933	KeyDown	41324	3	Middle	9
188.4716666666667	0	n/a	113084	KeyDown	41324	2	Ring	9
188.7150000000000	0	n/a	113230	KeyDown	41324	4	Index	9
188.9666666666667	0	n/a	113381	KeyDown	41324	4	Index	9
189.2266666666667	0	n/a	113537	KeyDown	41324	1	Little	9
189.4750000000000	0	n/a	113686	KeyDown	41324	3	Middle	9
189.6800000000000	0	n/a	113809	KeyDown	41324	2	Ring	9
189.9066666666667	0	n/a	113945	KeyDown	41324	4	Index	9
190.1366666666667	0	n/a	114083	KeyDown	41324	4	Index	9
190.3850000000000	0	n/a	114232	KeyDown	41324	1	Little	9
190.7850000000000	0	n/a	114472	KeyDown	41324	3	Middle	9
191.1050000000000	0	n/a	114664	KeyDown	41324	2	Ring	9
191.3583333333333	0	n/a	114816	KeyDown	41324	4	Index	9
191.6516666666667	0	n/a	114992	KeyDown	41324	4	Index	9
191.8750000000000	0	n/a	115126	KeyDown	41324	1	Little	9
192.1616666666667	0	n/a	115298	KeyDown	41324	3	Middle	9
192.4183333333334	0	n/a	115452	KeyDown	41324	2	Ring	9
192.6483333333333	0	n/a	115590	KeyDown	41324	4	Index	9
192.8566666666667	0	n/a	115715	KeyDown	41324	4	Index	9
193.2366666666667	0	n/a	115943	KeyDown	41324	1	Little	9
193.4883333333333	0	n/a	116094	KeyDown	41324	3	Middle	9
193.7566666666667	0	n/a	116255	KeyDown	41324	2	Ring	9
194.0766666666667	0	n/a	116447	KeyDown	41324	4	Index	9
194.2733333333333	0	n/a	116565	KeyDown	41324	4	Index	9
194.8200000000000	0	n/a	116893	KeyDown	41324	3	Middle	9
195.6466666666667	0	n/a	117389	StopPractice	41324	n/a	n/a	9
195.6483333333333	0	n/a	117390	StartRest	XXXXX	n/a	n/a	9
205.6833333333333	0	n/a	123411	StopRest	XXXXX	n/a	n/a	9
205.6850000000000	0	UPPT001	123412	StartPractice	41324	n/a	n/a	10
206.0866666666667	0	n/a	123653	KeyDown	41324	4	Index	10
206.2816666666667	0	n/a	123770	KeyDown	41324	1	Little	10
206.5400000000000	0	n/a	123925	KeyDown	41324	3	Middle	10
206.7183333333333	0	n/a	124032	KeyDown	41324	2	Ring	10
206.9433333333334	0	n/a	124167	KeyDown	41324	4	Index	10
207.1483333333333	0	n/a	124290	KeyDown	41324	4	Index	10
207.4116666666667	0	n/a	124448	KeyDown	41324	1	Little	10
207.6783333333333	0	n/a	124608	KeyDown	41324	3	Middle	10
207.9266666666667	0	n/a	124757	KeyDown	41324	2	Ring	10
208.1283333333334	0	n/a	124878	KeyDown	41324	4	Index	10
208.3516666666667	0	n/a	125012	KeyDown	41324	4	Index	10
208.5816666666667	0	n/a	125150	KeyDown	41324	1	Little	10
208.8466666666667	0	n/a	125309	KeyDown	41324	3	Middle	10
209.0916666666667	0	n/a	125456	KeyDown	41324	2	Ring	10
209.3300000000000	0	n/a	125599	KeyDown	41324	4	Index	10
209.5033333333334	0	n/a	125703	KeyDown	41324	4	Index	10
209.7466666666667	0	n/a	125849	KeyDown	41324	1	Little	10
210.1183333333333	0	n/a	126072	KeyDown	41324	3	Middle	10
210.3416666666667	0	n/a	126206	KeyDown	41324	2	Ring	10
210.5916666666667	0	n/a	126356	KeyDown	41324	4	Index	10
210.7666666666667	0	n/a	126461	KeyDown	41324	4	Index	10
210.9766666666667	0	n/a	126587	KeyDown	41324	1	Little	10
211.3733333333333	0	n/a	126825	KeyDown	41324	3	Middle	10
211.5933333333333	0	n/a	126957	KeyDown	41324	2	Ring	10
212.3800000000000	0	n/a	127429	KeyDown	41324	4	Index	10
212.6733333333333	0	n/a	127605	KeyDown	41324	4	Index	10
212.9366666666667	0	n/a	127763	KeyDown	41324	1	Little	10
213.2250000000000	0	n/a	127936	KeyDown	41324	3	Middle	10
213.4500000000000	0	n/a	128071	KeyDown	41324	2	Ring	10
214.1683333333334	0	n/a	128502	KeyDown	41324	4	Index	10
214.6716666666667	0	n/a	128804	KeyDown	41324	4	Index	10
214.9266666666667	0	n/a	128957	KeyDown	41324	1	Little	10
215.2483333333333	0	n/a	129150	KeyDown	41324	3	Middle	10
215.4316666666667	0	n/a	129260	KeyDown	41324	2	Ring	10
215.7233333333334	0	n/a	129435	StopPractice	41324	n/a	n/a	10
215.7250000000000	0	n/a	129436	StartRest	XXXXX	n/a	n/a	10
225.7566666666667	0	n/a	135455	StopRest	XXXXX	n/a	n/a	10
225.7583333333334	0	UPPT001	135456	StartPractice	41324	n/a	n/a	11
226.0700000000000	0	n/a	135643	KeyDown	41324	4	Index	11
226.3216666666667	0	n/a	135794	KeyDown	41324	1	Little	11
226.6033333333334	0	n/a	135963	KeyDown	41324	3	Middle	11
226.8166666666667	0	n/a	136091	KeyDown	41324	2	Ring	11
227.0250000000000	0	n/a	136216	KeyDown	41324	4	Index	11
227.2683333333333	0	n/a	136362	KeyDown	41324	4	Index	11
227.5383333333334	0	n/a	136524	KeyDown	41324	1	Little	11
227.8100000000000	0	n/a	136687	KeyDown	41324	3	Middle	11
228.0566666666667	0	n/a	136835	KeyDown	41324	2	Ring	11
228.2400000000000	0	n/a	136945	KeyDown	41324	4	Index	11
228.4716666666667	0	n/a	137084	KeyDown	41324	4	Index	11
228.7000000000000	0	n/a	137221	KeyDown	41324	1	Little	11
228.9183333333334	0	n/a	137352	KeyDown	41324	3	Middle	11
229.1550000000000	0	n/a	137494	KeyDown	41324	2	Ring	11
229.3700000000000	0	n/a	137623	KeyDown	41324	4	Index	11
229.9950000000000	0	n/a	137998	KeyDown	41324	1	Little	11
230.2900000000000	0	n/a	138175	KeyDown	41324	3	Middle	11
230.6650000000000	0	n/a	138400	KeyDown	41324	2	Ring	11
230.9266666666667	0	n/a	138557	KeyDown	41324	4	Index	11
231.1150000000000	0	n/a	138670	KeyDown	41324	4	Index	11
231.3666666666667	0	n/a	138821	KeyDown	41324	1	Little	11
232.9366666666667	0	n/a	139763	KeyDown	41324	3	Middle	11
233.2416666666667	0	n/a	139946	KeyDown	41324	2	Ring	11
234.0500000000000	0	n/a	140431	KeyDown	41324	4	Index	11
234.3833333333334	0	n/a	140631	KeyDown	41324	4	Index	11
235.7966666666667	0	n/a	141479	StopPractice	41324	n/a	n/a	11
235.7983333333333	0	n/a	141480	StartRest	XXXXX	n/a	n/a	11
245.8316666666667	0	n/a	147500	StopRest	XXXXX	n/a	n/a	11
245.8333333333333	0	UPPT001	147501	StartPractice	41324	n/a	n/a	12
246.1900000000000	0	n/a	147715	KeyDown	41324	4	Index	12
246.4550000000000	0	n/a	147874	KeyDown	41324	1	Little	12
246.7216666666667	0	n/a	148034	KeyDown	41324	3	Middle	12
246.9650000000000	0	n/a	148180	KeyDown	41324	2	Ring	12
247.1950000000000	0	n/a	148318	KeyDown	41324	4	Index	12
247.4716666666667	0	n/a	148484	KeyDown	41324	4	Index	12
247.9350000000000	0	n/a	148762	KeyDown	41324	1	Little	12
248.1916666666667	0	n/a	148916	KeyDown	41324	3	Middle	12
248.5166666666667	0	n/a	149111	KeyDown	41324	2	Ring	12
248.8416666666667	0	n/a	149306	KeyDown	41324	4	Index	12
249.1300000000000	0	n/a	149479	KeyDown	41324	4	Index	12
249.3866666666667	0	n/a	149633	KeyDown	41324	1	Little	12
249.6100000000000	0	n/a	149767	KeyDown	41324	3	Middle	12
249.8666666666667	0	n/a	149921	KeyDown	41324	2	Ring	12
250.0966666666667	0	n/a	150059	KeyDown	41324	4	Index	12
250.3433333333334	0	n/a	150207	KeyDown	41324	4	Index	12
250.6016666666667	0	n/a	150362	KeyDown	41324	1	Little	12
250.9566666666667	0	n/a	150575	KeyDown	41324	3	Middle	12
251.3783333333334	0	n/a	150828	KeyDown	41324	2	Ring	12
251.6666666666667	0	n/a	151001	KeyDown	41324	4	Index	12
251.9316666666667	0	n/a	151160	KeyDown	41324	4	Index	12
252.2650000000000	0	n/a	151360	KeyDown	41324	1	Little	12
252.5116666666667	0	n/a	151508	KeyDown	41324	3	Middle	12
252.7766666666667	0	n/a	151667	KeyDown	41324	2	Ring	12
253.0466666666667	0	n/a	151829	KeyDown	41324	4	Index	12
253.2600000000000	0	n/a	151957	KeyDown	41324	4	Index	12
253.5400000000000	0	n/a	152125	KeyDown	41324	1	Little	12
253.8083333333333	0	n/a	152286	KeyDown	41324	3	Middle	12
254.0866666666667	0	n/a	152453	KeyDown	41324	2	Ring	12
254.3433333333334	0	n/a	152607	KeyDown	41324	4	Index	12
254.5150000000000	0	n/a	152710	KeyDown	41324	4	Index	12
254.8500000000000	0	n/a	152911	KeyDown	41324	1	Little	12
255.3966666666667	0	n/a	153239	KeyDown	41324	3	Middle	12
255.6983333333334	0	n/a	153420	KeyDown	41324	2	Ring	12
255.8716666666667	0	n/a	153524	StopPractice	41324	n/a	n/a	12
255.8733333333334	0	n/a	153525	StartRest	XXXXX	n/a	n/a	12
265.9066666666667	0	n/a	159545	StopRest	XXXXX	n/a	n/a	12
265.9083333333334	0	UPPT001	159546	StartPractice	41324	n/a	n/a	13
266.3000000000000	0	n/a	159781	KeyDown	41324	4	Index	13
266.5250000000000	0	n/a	159916	KeyDown	41324	1	Little	13
266.7716666666667	0	n/a	160064	KeyDown	41324	3	Middle	13
266.9900000000000	0	n/a	160195	KeyDown	41324	2	Ring	13
267.2300000000000	0	n/a	160339	KeyDown	41324	4	Index	13
267.4200000000000	0	n/a	160453	KeyDown	41324	4	Index	13
267.6850000000000	0	n/a	160612	KeyDown	41324	1	Little	13
268.0566666666667	0	n/a	160835	KeyDown	41324	3	Middle	13
268.3550000000000	0	n/a	161014	KeyDown	41324	2	Ring	13
268.6150000000000	0	n/a	161170	KeyDown	41324	4	Index	13
268.7900000000000	0	n/a	161275	KeyDown	41324	4	Index	13
269.0333333333334	0	n/a	161421	KeyDown	41324	1	Little	13
269.2716666666667	0	n/a	161564	KeyDown	41324	3	Middle	13
269.5266666666667	0	n/a	161717	KeyDown	41324	2	Ring	13
269.8200000000000	0	n/a	161893	KeyDown	41324	4	Index	13
270.0033333333333	0	n/a	162003	KeyDown	41324	4	Index	13
270.2816666666667	0	n/a	162170	KeyDown	41324	1	Little	13
270.6200000000000	0	n/a	162373	KeyDown	41324	3	Middle	13
270.8750000000000	0	n/a	162526	KeyDown	41324	2	Ring	13
271.0950000000000	0	n/a	162658	KeyDown	41324	4	Index	13
271.2600000000000	0	n/a	162757	KeyDown	41324	4	Index	13
271.6166666666667	0	n/a	162971	KeyDown	41324	3	Middle	13
272.0783333333334	0	n/a	163248	KeyDown	41324	2	Ring	13
273.7716666666667	0	n/a	164264	KeyDown	41324	1	Little	13
274.5833333333334	0	n/a	164751	KeyDown	41324	4	Index	13
275.5916666666667	0	n/a	165356	KeyDown	41324	4	Index	13
275.9466666666667	0	n/a	165569	StopPractice	41324	n/a	n/a	13
275.9483333333333	0	n/a	165570	StartRest	XXXXX	n/a	n/a	13
285.9816666666667	0	n/a	171590	StopRest	XXXXX	n/a	n/a	13
285.9833333333333	0	UPPT001	171591	StartPractice	41324	n/a	n/a	14
286.3116666666667	0	n/a	171788	KeyDown	41324	4	Index	14
286.5100000000000	0	n/a	171907	KeyDown	41324	1	Little	14
286.7916666666667	0	n/a	172076	KeyDown	41324	3	Middle	14
287.0066666666667	0	n/a	172205	KeyDown	41324	2	Ring	14
287.2416666666667	0	n/a	172346	KeyDown	41324	4	Index	14
287.4766666666667	0	n/a	172487	KeyDown	41324	4	Index	14
287.8466666666667	0	n/a	172709	KeyDown	41324	1	Little	14
288.1966666666667	0	n/a	172919	KeyDown	41324	3	Middle	14
288.5650000000000	0	n/a	173140	KeyDown	41324	2	Ring	14
289.0116666666667	0	n/a	173408	KeyDown	41324	4	Index	14
289.2816666666667	0	n/a	173570	KeyDown	41324	4	Index	14
290.0150000000000	0	n/a	174010	KeyDown	41324	1	Little	14
290.7700000000000	0	n/a	174463	KeyDown	41324	3	Middle	14
291.0650000000000	0	n/a	174640	KeyDown	41324	2	Ring	14
291.3133333333333	0	n/a	174789	KeyDown	41324	4	Index	14
291.6266666666667	0	n/a	174977	KeyDown	41324	1	Little	14
291.8883333333334	0	n/a	175134	KeyDown	41324	3	Middle	14
292.0950000000000	0	n/a	175258	KeyDown	41324	2	Ring	14
292.4733333333334	0	n/a	175485	KeyDown	41324	4	Index	14
292.9216666666667	0	n/a	175754	KeyDown	41324	4	Index	14
293.6366666666667	0	n/a	176183	KeyDown	41324	1	Little	14
294.2916666666667	0	n/a	176576	KeyDown	41324	3	Middle	14
294.6616666666667	0	n/a	176798	KeyDown	41324	2	Ring	14
294.9300000000000	0	n/a	176959	KeyDown	41324	4	Index	14
295.3066666666667	0	n/a	177185	KeyDown	41324	1	Little	14
296.0216666666667	0	n/a	177614	StopPractice	41324	n/a	n/a	14
296.0233333333334	0	n/a	177615	StartRest	XXXXX	n/a	n/a	14
306.0566666666667	0	n/a	183635	StopRest	XXXXX	n/a	n/a	14
306.0583333333333	0	UPPT001	183636	StartPractice	41324	n/a	n/a	15
306.3816666666667	0	n/a	183830	KeyDown	41324	4	Index	15
306.6450000000000	0	n/a	183988	KeyDown	41324	1	Little	15
307.2466666666667	0	n/a	184349	KeyDown	41324	3	Middle	15
307.5316666666667	0	n/a	184520	KeyDown	41324	2	Ring	15
307.8900000000000	0	n/a	184735	KeyDown	41324	4	Index	15
308.1866666666667	0	n/a	184913	KeyDown	41324	4	Index	15
308.9616666666667	0	n/a	185378	KeyDown	41324	1	Little	15
309.3816666666667	0	n/a	185630	KeyDown	41324	3	Middle	15
309.6516666666667	0	n/a	185792	KeyDown	41324	2	Ring	15
309.9766666666667	0	n/a	185987	KeyDown	41324	4	Index	15
310.2716666666667	0	n/a	186164	KeyDown	41324	4	Index	15
310.5266666666667	0	n/a	186317	KeyDown	41324	1	Little	15
310.7883333333334	0	n/a	186474	KeyDown	41324	3	Middle	15
311.1033333333334	0	n/a	186663	KeyDown	41324	2	Ring	15
311.4166666666667	0	n/a	186851	KeyDown	41324	4	Index	15
311.7033333333334	0	n/a	187023	KeyDown	41324	4	Index	15
311.9900000000000	0	n/a	187195	KeyDown	41324	1	Little	15
312.3266666666667	0	n/a	187397	KeyDown	41324	3	Middle	15
312.6500000000000	0	n/a	187591	KeyDown	41324	2	Ring	15
312.9983333333333	0	n/a	187800	KeyDown	41324	4	Index	15
313.2466666666667	0	n/a	187949	KeyDown	41324	4	Index	15
314.2116666666667	0	n/a	188528	KeyDown	41324	1	Little	15
314.5950000000000	0	n/a	188758	KeyDown	41324	3	Middle	15
315.1233333333333	0	n/a	189075	KeyDown	41324	2	Ring	15
315.7366666666667	0	n/a	189443	KeyDown	41324	4	Index	15
316.0700000000000	0	n/a	189643	KeyDown	41324	4	Index	15
316.0966666666667	0	n/a	189659	StopPractice	41324	n/a	n/a	15
316.0983333333334	0	n/a	189660	StartRest	XXXXX	n/a	n/a	15
326.1300000000000	0	n/a	195679	StopRest	XXXXX	n/a	n/a	15
326.1316666666667	0	UPPT001	195680	StartPractice	41324	n/a	n/a	16
326.4383333333333	0	n/a	195864	KeyDown	41324	4	Index	16
326.7116666666667	0	n/a	196028	KeyDown	41324	1	Little	16
327.0166666666667	0	n/a	196211	KeyDown	41324	3	Middle	16
327.2750000000000	0	n/a	196366	KeyDown	41324	2	Ring	16
327.5916666666667	0	n/a	196556	KeyDown	41324	4	Index	16
328.3866666666667	0	n/a	197033	KeyDown	41324	4	Index	16
328.6900000000000	0	n/a	197215	KeyDown	41324	1	Little	16
328.9600000000000	0	n/a	197377	KeyDown	41324	3	Middle	16
329.2250000000000	0	n/a	197536	KeyDown	41324	2	Ring	16
329.4783333333334	0	n/a	197688	KeyDown	41324	4	Index	16
329.7716666666667	0	n/a	197864	KeyDown	41324	4	Index	16
330.0300000000000	0	n/a	198019	KeyDown	41324	1	Little	16
330.3183333333333	0	n/a	198192	KeyDown	41324	3	Middle	16
330.6000000000000	0	n/a	198361	KeyDown	41324	2	Ring	16
330.8450000000000	0	n/a	198508	KeyDown	41324	4	Index	16
331.1300000000000	0	n/a	198679	KeyDown	41324	4	Index	16
331.4466666666667	0	n/a	198869	KeyDown	41324	1	Little	16
331.6983333333334	0	n/a	199020	KeyDown	41324	3	Middle	16
331.9750000000000	0	n/a	199186	KeyDown	41324	2	Ring	16
332.2783333333334	0	n/a	199368	KeyDown	41324	4	Index	16
332.5883333333334	0	n/a	199554	KeyDown	41324	4	Index	16
332.9000000000000	0	n/a	199741	KeyDown	41324	1	Little	16
333.3183333333333	0	n/a	199992	KeyDown	41324	3	Middle	16
333.6166666666667	0	n/a	200171	KeyDown	41324	2	Ring	16
333.8833333333334	0	n/a	200331	KeyDown	41324	4	Index	16
334.1983333333334	0	n/a	200520	KeyDown	41324	4	Index	16
334.5916666666667	0	n/a	200756	KeyDown	41324	1	Little	16
335.0433333333334	0	n/a	201027	KeyDown	41324	3	Middle	16
335.3333333333334	0	n/a	201201	KeyDown	41324	2	Ring	16
335.6150000000000	0	n/a	201370	KeyDown	41324	4	Index	16
335.9483333333334	0	n/a	201570	KeyDown	41324	4	Index	16
336.1700000000000	0	n/a	201703	StopPractice	41324	n/a	n/a	16
336.1716666666667	0	n/a	201704	StartRest	XXXXX	n/a	n/a	16
346.2066666666667	0	n/a	207725	StopRest	XXXXX	n/a	n/a	16
346.2083333333334	0	UPPT001	207726	StartPractice	41324	n/a	n/a	17
346.6866666666667	0	n/a	208013	KeyDown	41324	4	Index	17
346.9216666666667	0	n/a	208154	KeyDown	41324	1	Little	17
347.2050000000000	0	n/a	208324	KeyDown	41324	3	Middle	17
347.4766666666667	0	n/a	208487	KeyDown	41324	2	Ring	17
347.7383333333333	0	n/a	208644	KeyDown	41324	4	Index	17
347.9950000000000	0	n/a	208798	KeyDown	41324	4	Index	17
348.2250000000000	0	n/a	208936	KeyDown	41324	1	Little	17
348.5000000000000	0	n/a	209101	KeyDown	41324	3	Middle	17
348.7666666666667	0	n/a	209261	KeyDown	41324	2	Ring	17
349.2250000000000	0	n/a	209536	KeyDown	41324	4	Index	17
349.4650000000000	0	n/a	209680	KeyDown	41324	4	Index	17
349.8450000000000	0	n/a	209908	KeyDown	41324	1	Little	17
350.1350000000000	0	n/a	210082	KeyDown	41324	3	Middle	17
350.4400000000000	0	n/a	210265	KeyDown	41324	2	Ring	17
350.7200000000000	0	n/a	210433	KeyDown	41324	4	Index	17
350.9450000000001	0	n/a	210568	KeyDown	41324	4	Index	17
351.1816666666667	0	n/a	210710	KeyDown	41324	1	Little	17
351.5016666666667	0	n/a	210902	KeyDown	41324	3	Middle	17
351.7883333333334	0	n/a	211074	KeyDown	41324	2	Ring	17
352.0416666666667	0	n/a	211226	KeyDown	41324	4	Index	17
352.8466666666667	0	n/a	211709	KeyDown	41324	4	Index	17
353.2000000000000	0	n/a	211921	KeyDown	41324	3	Middle	17
353.5383333333334	0	n/a	212124	KeyDown	41324	2	Ring	17
354.3533333333334	0	n/a	212613	KeyDown	41324	4	Index	17
354.6766666666667	0	n/a	212807	KeyDown	41324	1	Little	17
355.5200000000000	0	n/a	213313	KeyDown	41324	3	Middle	17
355.7866666666667	0	n/a	213473	KeyDown	41324	2	Ring	17
356.1216666666667	0	n/a	213674	KeyDown	41324	4	Index	17
356.2466666666667	0	n/a	213749	StopPractice	41324	n/a	n/a	17
356.2483333333333	0	n/a	213750	StartRest	XXXXX	n/a	n/a	17
366.2800000000000	0	n/a	219769	StopRest	XXXXX	n/a	n/a	17
366.2816666666667	0	UPPT001	219770	StartPractice	41324	n/a	n/a	18
366.6583333333334	0	n/a	219996	KeyDown	41324	4	Index	18
366.9383333333333	0	n/a	220164	KeyDown	41324	1	Little	18
367.2200000000000	0	n/a	220333	KeyDown	41324	3	Middle	18
367.4266666666667	0	n/a	220457	KeyDown	41324	2	Ring	18
367.6600000000000	0	n/a	220597	KeyDown	41324	4	Index	18
367.9733333333334	0	n/a	220785	KeyDown	41324	4	Index	18
368.4916666666667	0	n/a	221096	KeyDown	41324	1	Little	18
368.8000000000000	0	n/a	221281	KeyDown	41324	3	Middle	18
369.0633333333333	0	n/a	221439	KeyDown	41324	2	Ring	18
369.4000000000000	0	n/a	221641	KeyDown	41324	4	Index	18
369.8733333333333	0	n/a	221925	KeyDown	41324	4	Index	18
370.3266666666667	0	n/a	222197	KeyDown	41324	1	Little	18
370.7650000000000	0	n/a	222460	KeyDown	41324	3	Middle	18
371.0600000000000	0	n/a	222637	KeyDown	41324	2	Ring	18
371.3883333333334	0	n/a	222834	KeyDown	41324	4	Index	18
371.7850000000000	0	n/a	223072	KeyDown	41324	4	Index	18
372.0933333333334	0	n/a	223257	KeyDown	41324	1	Little	18
372.3333333333334	0	n/a	223401	KeyDown	41324	3	Middle	18
372.5800000000000	0	n/a	223549	KeyDown	41324	2	Ring	18
372.8550000000000	0	n/a	223714	KeyDown	41324	4	Index	18
373.2316666666667	0	n/a	223940	KeyDown	41324	4	Index	18
373.9116666666667	0	n/a	224348	KeyDown	41324	1	Little	18
374.1716666666667	0	n/a	224504	KeyDown	41324	3	Middle	18
374.4183333333334	0	n/a	224652	KeyDown	41324	2	Ring	18
374.8200000000001	0	n/a	224893	KeyDown	41324	4	Index	18
375.1533333333334	0	n/a	225093	KeyDown	41324	4	Index	18
375.4700000000000	0	n/a	225283	KeyDown	41324	1	Little	18
375.7450000000000	0	n/a	225448	KeyDown	41324	3	Middle	18
375.9666666666667	0	n/a	225581	KeyDown	41324	2	Ring	18
376.3200000000001	0	n/a	225793	StopPractice	41324	n/a	n/a	18
376.3216666666667	0	n/a	225794	StartRest	XXXXX	n/a	n/a	18
386.3550000000000	0	n/a	231814	StopRest	XXXXX	n/a	n/a	18
386.3566666666667	0	UPPT001	231815	StartPractice	41324	n/a	n/a	19
386.7500000000000	0	n/a	232051	KeyDown	41324	4	Index	19
386.9933333333333	0	n/a	232197	KeyDown	41324	1	Little	19
387.2616666666667	0	n/a	232358	KeyDown	41324	3	Middle	19
387.4850000000000	0	n/a	232492	KeyDown	41324	2	Ring	19
387.7283333333334	0	n/a	232638	KeyDown	41324	4	Index	19
388.0533333333333	0	n/a	232833	KeyDown	41324	4	Index	19
388.3800000000001	0	n/a	233029	KeyDown	41324	1	Little	19
388.6400000000000	0	n/a	233185	KeyDown	41324	3	Middle	19
388.8633333333333	0	n/a	233319	KeyDown	41324	2	Ring	19
389.1300000000001	0	n/a	233479	KeyDown	41324	4	Index	19
389.4366666666667	0	n/a	233663	KeyDown	41324	4	Index	19
389.7000000000000	0	n/a	233821	KeyDown	41324	1	Little	19
389.9316666666667	0	n/a	233960	KeyDown	41324	3	Middle	19
390.1600000000000	0	n/a	234097	KeyDown	41324	2	Ring	19
390.4100000000000	0	n/a	234247	KeyDown	41324	4	Index	19
390.7116666666667	0	n/a	234428	KeyDown	41324	4	Index	19
391.0066666666667	0	n/a	234605	KeyDown	41324	1	Little	19
391.3800000000001	0	n/a	234829	KeyDown	41324	3	Middle	19
391.7800000000000	0	n/a	235069	KeyDown	41324	2	Ring	19
392.0716666666667	0	n/a	235244	KeyDown	41324	4	Index	19
392.3100000000000	0	n/a	235387	KeyDown	41324	4	Index	19
392.6000000000000	0	n/a	235561	KeyDown	41324	1	Little	19
392.9516666666667	0	n/a	235772	KeyDown	41324	3	Middle	19
393.2550000000001	0	n/a	235954	KeyDown	41324	2	Ring	19
393.5066666666667	0	n/a	236105	KeyDown	41324	4	Index	19
393.6716666666667	0	n/a	236204	KeyDown	41324	4	Index	19
393.9616666666667	0	n/a	236378	KeyDown	41324	1	Little	19
394.5050000000001	0	n/a	236704	KeyDown	41324	3	Middle	19
395.2500000000000	0	n/a	237151	KeyDown	41324	2	Ring	19
396.0383333333334	0	n/a	237624	KeyDown	41324	4	Index	19
396.3950000000000	0	n/a	237838	StopPractice	41324	n/a	n/a	19
396.3966666666667	0	n/a	237839	StartRest	XXXXX	n/a	n/a	19
406.4316666666667	0	n/a	243860	StopRest	XXXXX	n/a	n/a	19
406.4333333333333	0	UPPT001	243861	StartPractice	41324	n/a	n/a	20
406.8866666666667	0	n/a	244133	KeyDown	41324	4	Index	20
407.1466666666667	0	n/a	244289	KeyDown	41324	1	Little	20
407.4950000000000	0	n/a	244498	KeyDown	41324	3	Middle	20
407.7450000000000	0	n/a	244648	KeyDown	41324	2	Ring	20
408.0400000000000	0	n/a	244825	KeyDown	41324	4	Index	20
408.6616666666667	0	n/a	245198	KeyDown	41324	4	Index	20
408.9816666666667	0	n/a	245390	KeyDown	41324	1	Little	20
409.2150000000000	0	n/a	245530	KeyDown	41324	3	Middle	20
409.4000000000000	0	n/a	245641	KeyDown	41324	2	Ring	20
409.6850000000000	0	n/a	245812	KeyDown	41324	4	Index	20
409.9466666666667	0	n/a	245969	KeyDown	41324	4	Index	20
410.3100000000000	0	n/a	246187	KeyDown	41324	1	Little	20
410.6500000000000	0	n/a	246391	KeyDown	41324	3	Middle	20
410.8616666666667	0	n/a	246518	KeyDown	41324	2	Ring	20
411.0900000000000	0	n/a	246655	KeyDown	41324	4	Index	20
411.3166666666667	0	n/a	246791	KeyDown	41324	4	Index	20
411.6000000000000	0	n/a	246961	KeyDown	41324	1	Little	20
411.8366666666667	0	n/a	247103	KeyDown	41324	3	Middle	20
412.0600000000000	0	n/a	247237	KeyDown	41324	2	Ring	20
412.3466666666667	0	n/a	247409	KeyDown	41324	4	Index	20
412.5850000000000	0	n/a	247552	KeyDown	41324	4	Index	20
412.9916666666667	0	n/a	247796	KeyDown	41324	1	Little	20
413.2900000000000	0	n/a	247975	KeyDown	41324	3	Middle	20
413.5500000000000	0	n/a	248131	KeyDown	41324	2	Ring	20
413.7650000000000	0	n/a	248260	KeyDown	41324	4	Index	20
413.9500000000000	0	n/a	248371	KeyDown	41324	4	Index	20
414.5050000000001	0	n/a	248704	KeyDown	41324	1	Little	20
414.7500000000000	0	n/a	248851	KeyDown	41324	3	Middle	20
414.9916666666667	0	n/a	248996	KeyDown	41324	2	Ring	20
415.2366666666667	0	n/a	249143	KeyDown	41324	4	Index	20
415.4233333333333	0	n/a	249255	KeyDown	41324	4	Index	20
415.7500000000000	0	n/a	249451	KeyDown	41324	3	Middle	20
416.0083333333334	0	n/a	249606	KeyDown	41324	2	Ring	20
416.2666666666667	0	n/a	249761	KeyDown	41324	1	Little	20
416.4716666666667	0	n/a	249884	StopPractice	41324	n/a	n/a	20
416.4733333333334	0	n/a	249885	StartRest	XXXXX	n/a	n/a	20
426.5050000000001	0	n/a	255904	StopRest	XXXXX	n/a	n/a	20
426.5066666666667	0	UPPT001	255905	StartPractice	41324	n/a	n/a	21
426.9816666666667	0	n/a	256190	KeyDown	41324	4	Index	21
427.2150000000000	0	n/a	256330	KeyDown	41324	1	Little	21
427.5250000000000	0	n/a	256516	KeyDown	41324	3	Middle	21
427.7633333333334	0	n/a	256659	KeyDown	41324	2	Ring	21
427.9700000000000	0	n/a	256783	KeyDown	41324	4	Index	21
428.2333333333333	0	n/a	256941	KeyDown	41324	4	Index	21
428.4516666666667	0	n/a	257072	KeyDown	41324	1	Little	21
428.7150000000000	0	n/a	257230	KeyDown	41324	3	Middle	21
428.9316666666667	0	n/a	257360	KeyDown	41324	2	Ring	21
429.1483333333334	0	n/a	257490	KeyDown	41324	4	Index	21
429.8383333333334	0	n/a	257904	KeyDown	41324	1	Little	21
430.1883333333333	0	n/a	258114	KeyDown	41324	3	Middle	21
430.4683333333334	0	n/a	258282	KeyDown	41324	2	Ring	21
430.6983333333334	0	n/a	258420	KeyDown	41324	4	Index	21
430.9083333333334	0	n/a	258546	KeyDown	41324	4	Index	21
431.2083333333334	0	n/a	258726	KeyDown	41324	1	Little	21
431.6366666666667	0	n/a	258983	KeyDown	41324	3	Middle	21
432.1633333333334	0	n/a	259299	KeyDown	41324	2	Ring	21
432.4350000000000	0	n/a	259462	KeyDown	41324	4	Index	21
432.6550000000000	0	n/a	259594	KeyDown	41324	4	Index	21
433.7233333333334	0	n/a	260235	KeyDown	41324	1	Little	21
434.0300000000000	0	n/a	260419	KeyDown	41324	3	Middle	21
434.2300000000000	0	n/a	260539	KeyDown	41324	2	Ring	21
434.4983333333333	0	n/a	260700	KeyDown	41324	4	Index	21
434.7650000000000	0	n/a	260860	KeyDown	41324	4	Index	21
435.0416666666667	0	n/a	261026	KeyDown	41324	1	Little	21
435.3033333333333	0	n/a	261183	KeyDown	41324	3	Middle	21
435.5133333333334	0	n/a	261309	KeyDown	41324	2	Ring	21
435.7533333333334	0	n/a	261453	KeyDown	41324	4	Index	21
435.9466666666667	0	n/a	261569	KeyDown	41324	4	Index	21
436.2433333333333	0	n/a	261747	KeyDown	41324	1	Little	21
436.5183333333334	0	n/a	261912	KeyDown	41324	3	Middle	21
436.5450000000000	0	n/a	261928	StopPractice	41324	n/a	n/a	21
436.5466666666667	0	n/a	261929	StartRest	XXXXX	n/a	n/a	21
446.5800000000000	0	n/a	267949	StopRest	XXXXX	n/a	n/a	21
446.5816666666667	0	UPPT001	267950	StartPractice	41324	n/a	n/a	22
446.9333333333333	0	n/a	268161	KeyDown	41324	4	Index	22
447.1800000000000	0	n/a	268309	KeyDown	41324	1	Little	22
447.4283333333333	0	n/a	268458	KeyDown	41324	3	Middle	22
447.6183333333333	0	n/a	268572	KeyDown	41324	2	Ring	22
447.8783333333334	0	n/a	268728	KeyDown	41324	4	Index	22
448.1400000000000	0	n/a	268885	KeyDown	41324	4	Index	22
448.3666666666667	0	n/a	269021	KeyDown	41324	1	Little	22
448.6916666666667	0	n/a	269216	KeyDown	41324	3	Middle	22
448.9416666666667	0	n/a	269366	KeyDown	41324	2	Ring	22
449.1866666666667	0	n/a	269513	KeyDown	41324	4	Index	22
449.4733333333334	0	n/a	269685	KeyDown	41324	4	Index	22
449.7183333333334	0	n/a	269832	KeyDown	41324	1	Little	22
450.0083333333334	0	n/a	270006	KeyDown	41324	3	Middle	22
450.2450000000000	0	n/a	270148	KeyDown	41324	2	Ring	22
450.4950000000000	0	n/a	270298	KeyDown	41324	4	Index	22
450.7350000000000	0	n/a	270442	KeyDown	41324	4	Index	22
451.8650000000000	0	n/a	271120	KeyDown	41324	1	Little	22
452.2516666666667	0	n/a	271352	KeyDown	41324	3	Middle	22
452.5683333333334	0	n/a	271542	KeyDown	41324	2	Ring	22
452.8650000000000	0	n/a	271720	KeyDown	41324	4	Index	22
453.1250000000001	0	n/a	271876	KeyDown	41324	4	Index	22
453.4400000000001	0	n/a	272065	KeyDown	41324	1	Little	22
453.7433333333333	0	n/a	272247	KeyDown	41324	3	Middle	22
453.9650000000000	0	n/a	272380	KeyDown	41324	2	Ring	22
454.2400000000000	0	n/a	272545	KeyDown	41324	4	Index	22
454.4433333333334	0	n/a	272667	KeyDown	41324	4	Index	22
454.6850000000000	0	n/a	272812	KeyDown	41324	1	Little	22
455.0850000000000	0	n/a	273052	KeyDown	41324	3	Middle	22
455.3733333333333	0	n/a	273225	KeyDown	41324	2	Ring	22
455.6350000000000	0	n/a	273382	KeyDown	41324	4	Index	22
455.8366666666667	0	n/a	273503	KeyDown	41324	4	Index	22
456.6200000000000	0	n/a	273973	StopPractice	41324	n/a	n/a	22
456.6216666666667	0	n/a	273974	StartRest	XXXXX	n/a	n/a	22
466.6533333333334	0	n/a	279993	StopRest	XXXXX	n/a	n/a	22
466.6550000000000	0	UPPT001	279994	StartPractice	41324	n/a	n/a	23
466.9683333333334	0	n/a	280182	KeyDown	41324	4	Index	23
467.1883333333334	0	n/a	280314	KeyDown	41324	1	Little	23
467.4500000000000	0	n/a	280471	KeyDown	41324	3	Middle	23
467.6766666666667	0	n/a	280607	KeyDown	41324	2	Ring	23
467.8866666666667	0	n/a	280733	KeyDown	41324	4	Index	23
468.1950000000001	0	n/a	280918	KeyDown	41324	4	Index	23
468.4516666666667	0	n/a	281072	KeyDown	41324	1	Little	23
468.6633333333334	0	n/a	281199	KeyDown	41324	3	Middle	23
468.9516666666667	0	n/a	281372	KeyDown	41324	2	Ring	23
469.3816666666667	0	n/a	281630	KeyDown	41324	4	Index	23
469.7966666666667	0	n/a	281879	KeyDown	41324	4	Index	23
470.2466666666667	0	n/a	282149	KeyDown	41324	1	Little	23
470.4966666666667	0	n/a	282299	KeyDown	41324	3	Middle	23
470.7616666666667	0	n/a	282458	KeyDown	41324	2	Ring	23
470.9816666666667	0	n/a	282590	KeyDown	41324	4	Index	23
471.2616666666667	0	n/a	282758	KeyDown	41324	4	Index	23
471.5300000000000	0	n/a	282919	KeyDown	41324	1	Little	23
471.7483333333334	0	n/a	283050	KeyDown	41324	3	Middle	23
471.9966666666667	0	n/a	283199	KeyDown	41324	2	Ring	23
472.2300000000000	0	n/a	283339	KeyDown	41324	4	Index	23
472.4783333333334	0	n/a	283488	KeyDown	41324	4	Index	23
472.8550000000000	0	n/a	283714	KeyDown	41324	1	Little	23
473.0666666666667	0	n/a	283841	KeyDown	41324	3	Middle	23
473.3116666666667	0	n/a	283988	KeyDown	41324	2	Ring	23
473.5583333333333	0	n/a	284136	KeyDown	41324	4	Index	23
473.7683333333334	0	n/a	284262	KeyDown	41324	4	Index	23
474.1716666666667	0	n/a	284504	KeyDown	41324	3	Middle	23
474.4133333333334	0	n/a	284649	KeyDown	41324	2	Ring	23
475.4883333333333	0	n/a	285294	KeyDown	41324	4	Index	23
475.7783333333334	0	n/a	285468	KeyDown	41324	4	Index	23
476.5383333333334	0	n/a	285924	KeyDown	41324	3	Middle	23
476.6933333333334	0	n/a	286017	StopPractice	41324	n/a	n/a	23
476.6950000000001	0	n/a	286018	StartRest	XXXXX	n/a	n/a	23
486.7300000000000	0	n/a	292039	StopRest	XXXXX	n/a	n/a	23
486.7316666666667	0	UPPT001	292040	StartPractice	41324	n/a	n/a	24
487.1133333333333	0	n/a	292269	KeyDown	41324	4	Index	24
487.3933333333334	0	n/a	292437	KeyDown	41324	1	Little	24
487.6583333333334	0	n/a	292596	KeyDown	41324	3	Middle	24
487.9250000000000	0	n/a	292756	KeyDown	41324	2	Ring	24
488.2683333333334	0	n/a	292962	KeyDown	41324	4	Index	24
488.6533333333334	0	n/a	293193	KeyDown	41324	4	Index	24
488.9900000000000	0	n/a	293395	KeyDown	41324	1	Little	24
489.2283333333334	0	n/a	293538	KeyDown	41324	3	Middle	24
489.4666666666667	0	n/a	293681	KeyDown	41324	2	Ring	24
489.6966666666667	0	n/a	293819	KeyDown	41324	4	Index	24
490.0000000000001	0	n/a	294001	KeyDown	41324	4	Index	24
490.3000000000000	0	n/a	294181	KeyDown	41324	1	Little	24
490.6166666666667	0	n/a	294371	KeyDown	41324	3	Middle	24
490.8883333333334	0	n/a	294534	KeyDown	41324	2	Ring	24
491.1550000000000	0	n/a	294694	KeyDown	41324	4	Index	24
491.4766666666667	0	n/a	294887	KeyDown	41324	4	Index	24
491.9900000000000	0	n/a	295195	KeyDown	41324	1	Little	24
492.4616666666667	0	n/a	295478	KeyDown	41324	3	Middle	24
492.9600000000000	0	n/a	295777	KeyDown	41324	2	Ring	24
493.2866666666667	0	n/a	295973	KeyDown	41324	4	Index	24
493.6600000000000	0	n/a	296197	KeyDown	41324	4	Index	24
493.9766666666667	0	n/a	296387	KeyDown	41324	1	Little	24
494.2150000000000	0	n/a	296530	KeyDown	41324	3	Middle	24
494.4466666666667	0	n/a	296669	KeyDown	41324	2	Ring	24
494.6916666666667	0	n/a	296816	KeyDown	41324	4	Index	24
494.9550000000000	0	n/a	296974	KeyDown	41324	4	Index	24
495.3466666666667	0	n/a	297209	KeyDown	41324	1	Little	24
495.5700000000001	0	n/a	297343	KeyDown	41324	3	Middle	24
495.8000000000000	0	n/a	297481	KeyDown	41324	2	Ring	24
496.0750000000000	0	n/a	297646	KeyDown	41324	4	Index	24
496.3333333333334	0	n/a	297801	KeyDown	41324	4	Index	24
496.7700000000000	0	n/a	298063	StopPractice	41324	n/a	n/a	24
496.7716666666667	0	n/a	298064	StartRest	XXXXX	n/a	n/a	24
506.8050000000000	0	n/a	304084	StopRest	XXXXX	n/a	n/a	24
506.8066666666667	0	UPPT001	304085	StartPractice	41324	n/a	n/a	25
507.1550000000000	0	n/a	304294	KeyDown	41324	4	Index	25
507.3616666666667	0	n/a	304418	KeyDown	41324	1	Little	25
507.6233333333334	0	n/a	304575	KeyDown	41324	3	Middle	25
507.8483333333334	0	n/a	304710	KeyDown	41324	2	Ring	25
508.1000000000000	0	n/a	304861	KeyDown	41324	4	Index	25
508.3833333333334	0	n/a	305031	KeyDown	41324	4	Index	25
508.6350000000000	0	n/a	305182	KeyDown	41324	1	Little	25
508.8833333333334	0	n/a	305331	KeyDown	41324	3	Middle	25
509.1383333333334	0	n/a	305484	KeyDown	41324	2	Ring	25
509.3833333333334	0	n/a	305631	KeyDown	41324	4	Index	25
509.5933333333334	0	n/a	305757	KeyDown	41324	4	Index	25
509.8600000000000	0	n/a	305917	KeyDown	41324	1	Little	25
510.6683333333334	0	n/a	306402	KeyDown	41324	3	Middle	25
510.9950000000000	0	n/a	306598	KeyDown	41324	2	Ring	25
511.3150000000001	0	n/a	306790	KeyDown	41324	4	Index	25
511.6083333333333	0	n/a	306966	KeyDown	41324	4	Index	25
511.9033333333334	0	n/a	307143	KeyDown	41324	1	Little	25
512.1650000000001	0	n/a	307300	KeyDown	41324	3	Middle	25
512.4000000000000	0	n/a	307441	KeyDown	41324	2	Ring	25
512.6416666666667	0	n/a	307586	KeyDown	41324	4	Index	25
512.8733333333333	0	n/a	307725	KeyDown	41324	4	Index	25
513.4366666666667	0	n/a	308063	KeyDown	41324	1	Little	25
513.6833333333334	0	n/a	308211	KeyDown	41324	3	Middle	25
513.9316666666667	0	n/a	308360	KeyDown	41324	2	Ring	25
514.2900000000001	0	n/a	308575	KeyDown	41324	4	Index	25
514.9450000000001	0	n/a	308968	KeyDown	41324	4	Index	25
515.7550000000000	0	n/a	309454	KeyDown	41324	1	Little	25
516.4416666666667	0	n/a	309866	KeyDown	41324	3	Middle	25
516.6650000000001	0	n/a	310000	KeyDown	41324	2	Ring	25
516.8450000000000	0	n/a	310108	StopPractice	41324	n/a	n/a	25
516.8466666666667	0	n/a	310109	StartRest	XXXXX	n/a	n/a	25
526.8783333333333	0	n/a	316128	StopRest	XXXXX	n/a	n/a	25
526.8800000000000	0	UPPT001	316129	StartPractice	41324	n/a	n/a	26
527.3233333333334	0	n/a	316395	KeyDown	41324	4	Index	26
527.5716666666667	0	n/a	316544	KeyDown	41324	1	Little	26
527.8316666666667	0	n/a	316700	KeyDown	41324	3	Middle	26
528.1166666666667	0	n/a	316871	KeyDown	41324	2	Ring	26
528.4100000000001	0	n/a	317047	KeyDown	41324	4	Index	26
528.8083333333334	0	n/a	317286	KeyDown	41324	4	Index	26
529.1066666666667	0	n/a	317465	KeyDown	41324	1	Little	26
529.3616666666667	0	n/a	317618	KeyDown	41324	3	Middle	26
529.6700000000001	0	n/a	317803	KeyDown	41324	2	Ring	26
529.9516666666667	0	n/a	317972	KeyDown	41324	4	Index	26
530.2666666666667	0	n/a	318161	KeyDown	41324	4	Index	26
530.5966666666667	0	n/a	318359	KeyDown	41324	1	Little	26
530.8750000000000	0	n/a	318526	KeyDown	41324	3	Middle	26
531.1483333333333	0	n/a	318690	KeyDown	41324	2	Ring	26
531.5683333333334	0	n/a	318942	KeyDown	41324	4	Index	26
531.9566666666667	0	n/a	319175	KeyDown	41324	4	Index	26
532.2466666666667	0	n/a	319349	KeyDown	41324	1	Little	26
532.4733333333334	0	n/a	319485	KeyDown	41324	3	Middle	26
532.7116666666667	0	n/a	319628	KeyDown	41324	2	Ring	26
532.9550000000000	0	n/a	319774	KeyDown	41324	4	Index	26
533.2083333333334	0	n/a	319926	KeyDown	41324	4	Index	26
533.5333333333334	0	n/a	320121	KeyDown	41324	1	Little	26
533.7650000000000	0	n/a	320260	KeyDown	41324	3	Middle	26
533.9850000000000	0	n/a	320392	KeyDown	41324	2	Ring	26
534.2500000000000	0	n/a	320551	KeyDown	41324	4	Index	26
534.4833333333333	0	n/a	320691	KeyDown	41324	4	Index	26
534.7300000000000	0	n/a	320839	KeyDown	41324	1	Little	26
534.9533333333334	0	n/a	320973	KeyDown	41324	3	Middle	26
535.1750000000001	0	n/a	321106	KeyDown	41324	2	Ring	26
535.4966666666667	0	n/a	321299	KeyDown	41324	4	Index	26
535.8583333333333	0	n/a	321516	KeyDown	41324	4	Index	26
536.1700000000001	0	n/a	321703	KeyDown	41324	1	Little	26
536.4050000000001	0	n/a	321844	KeyDown	41324	3	Middle	26
536.5916666666667	0	n/a	321956	KeyDown	41324	2	Ring	26
536.8583333333333	0	n/a	322116	KeyDown	41324	4	Index	26
536.9183333333334	0	n/a	322152	StopPractice	41324	n/a	n/a	26
536.9200000000001	0	n/a	322153	StartRest	XXXXX	n/a	n/a	26
546.9550000000000	0	n/a	328174	StopRest	XXXXX	n/a	n/a	26
546.9566666666667	0	UPPT001	328175	StartPractice	41324	n/a	n/a	27
547.3816666666667	0	n/a	328430	KeyDown	41324	4	Index	27
547.6016666666667	0	n/a	328562	KeyDown	41324	1	Little	27
547.8950000000000	0	n/a	328738	KeyDown	41324	3	Middle	27
548.1483333333333	0	n/a	328890	KeyDown	41324	2	Ring	27
548.3833333333333	0	n/a	329031	KeyDown	41324	4	Index	27
548.6833333333334	0	n/a	329211	KeyDown	41324	4	Index	27
548.9700000000000	0	n/a	329383	KeyDown	41324	1	Little	27
549.1883333333334	0	n/a	329514	KeyDown	41324	3	Middle	27
549.4700000000000	0	n/a	329683	KeyDown	41324	2	Ring	27
549.7266666666667	0	n/a	329837	KeyDown	41324	4	Index	27
550.3583333333333	0	n/a	330216	KeyDown	41324	1	Little	27
550.6366666666667	0	n/a	330383	KeyDown	41324	3	Middle	27
550.8950000000000	0	n/a	330538	KeyDown	41324	2	Ring	27
551.2000000000000	0	n/a	330721	KeyDown	41324	4	Index	27
551.4200000000001	0	n/a	330853	KeyDown	41324	4	Index	27
552.1233333333333	0	n/a	331275	KeyDown	41324	1	Little	27
552.3550000000000	0	n/a	331414	KeyDown	41324	3	Middle	27
552.5816666666667	0	n/a	331550	KeyDown	41324	2	Ring	27
552.8450000000000	0	n/a	331708	KeyDown	41324	4	Index	27
553.0583333333334	0	n/a	331836	KeyDown	41324	4	Index	27
553.3600000000000	0	n/a	332017	KeyDown	41324	1	Little	27
553.6283333333333	0	n/a	332178	KeyDown	41324	3	Middle	27
553.8450000000000	0	n/a	332308	KeyDown	41324	2	Ring	27
554.2633333333333	0	n/a	332559	KeyDown	41324	4	Index	27
554.5133333333333	0	n/a	332709	KeyDown	41324	4	Index	27
554.8033333333334	0	n/a	332883	KeyDown	41324	1	Little	27
555.1100000000000	0	n/a	333067	KeyDown	41324	3	Middle	27
555.4033333333334	0	n/a	333243	KeyDown	41324	2	Ring	27
555.7600000000000	0	n/a	333457	KeyDown	41324	4	Index	27
555.9733333333334	0	n/a	333585	KeyDown	41324	4	Index	27
556.2683333333333	0	n/a	333762	KeyDown	41324	1	Little	27
556.6533333333334	0	n/a	333993	KeyDown	41324	3	Middle	27
556.9033333333334	0	n/a	334143	KeyDown	41324	2	Ring	27
556.9950000000000	0	n/a	334198	StopPractice	41324	n/a	n/a	27
556.9966666666667	0	n/a	334199	StartRest	XXXXX	n/a	n/a	27
567.0283333333334	0	n/a	340218	StopRest	XXXXX	n/a	n/a	27
567.0300000000001	0	UPPT001	340219	StartPractice	41324	n/a	n/a	28
567.3483333333334	0	n/a	340410	KeyDown	41324	4	Index	28
567.5566666666667	0	n/a	340535	KeyDown	41324	1	Little	28
567.7966666666667	0	n/a	340679	KeyDown	41324	3	Middle	28
568.0316666666668	0	n/a	340820	KeyDown	41324	2	Ring	28
568.2383333333333	0	n/a	340944	KeyDown	41324	4	Index	28
568.5283333333334	0	n/a	341118	KeyDown	41324	4	Index	28
568.8133333333334	0	n/a	341289	KeyDown	41324	1	Little	28
569.1466666666666	0	n/a	341489	KeyDown	41324	3	Middle	28
569.4466666666667	0	n/a	341669	KeyDown	41324	2	Ring	28
569.7016666666667	0	n/a	341822	KeyDown	41324	4	Index	28
569.9616666666667	0	n/a	341978	KeyDown	41324	4	Index	28
570.2283333333334	0	n/a	342138	KeyDown	41324	1	Little	28
570.5150000000000	0	n/a	342310	KeyDown	41324	3	Middle	28
572.1416666666667	0	n/a	343286	KeyDown	41324	2	Ring	28
572.5866666666667	0	n/a	343553	KeyDown	41324	4	Index	28
572.8500000000000	0	n/a	343711	KeyDown	41324	4	Index	28
573.0666666666667	0	n/a	343841	KeyDown	41324	1	Little	28
573.3616666666667	0	n/a	344018	KeyDown	41324	3	Middle	28
573.6400000000000	0	n/a	344185	KeyDown	41324	2	Ring	28
573.9616666666667	0	n/a	344378	KeyDown	41324	4	Index	28
574.1816666666667	0	n/a	344510	KeyDown	41324	4	Index	28
574.9966666666667	0	n/a	344999	KeyDown	41324	4	Index	28
575.7483333333333	0	n/a	345450	KeyDown	41324	1	Little	28
576.0933333333334	0	n/a	345657	KeyDown	41324	3	Middle	28
576.3066666666667	0	n/a	345785	KeyDown	41324	2	Ring	28
576.5683333333334	0	n/a	345942	KeyDown	41324	4	Index	28
577.0683333333334	0	n/a	346242	StopPractice	41324	n/a	n/a	28
577.0700000000001	0	n/a	346243	StartRest	XXXXX	n/a	n/a	28
587.1033333333334	0	n/a	352263	StopRest	XXXXX	n/a	n/a	28
587.1050000000000	0	UPPT001	352264	StartPractice	41324	n/a	n/a	29
587.4983333333333	0	n/a	352500	KeyDown	41324	4	Index	29
587.9200000000001	0	n/a	352753	KeyDown	41324	1	Little	29
588.2400000000000	0	n/a	352945	KeyDown	41324	3	Middle	29
588.4966666666667	0	n/a	353099	KeyDown	41324	2	Ring	29
588.7433333333333	0	n/a	353247	KeyDown	41324	4	Index	29
589.0116666666667	0	n/a	353408	KeyDown	41324	4	Index	29
589.2450000000000	0	n/a	353548	KeyDown	41324	1	Little	29
589.5183333333333	0	n/a	353712	KeyDown	41324	3	Middle	29
589.7866666666667	0	n/a	353873	KeyDown	41324	2	Ring	29
589.9983333333333	0	n/a	354000	KeyDown	41324	4	Index	29
590.2183333333334	0	n/a	354132	KeyDown	41324	4	Index	29
590.9216666666667	0	n/a	354554	KeyDown	41324	1	Little	29
591.6966666666667	0	n/a	355019	KeyDown	41324	3	Middle	29
591.9983333333333	0	n/a	355200	KeyDown	41324	2	Ring	29
592.3033333333334	0	n/a	355383	KeyDown	41324	4	Index	29
592.5666666666667	0	n/a	355541	KeyDown	41324	4	Index	29
592.8066666666667	0	n/a	355685	KeyDown	41324	1	Little	29
593.0600000000001	0	n/a	355837	KeyDown	41324	3	Middle	29
593.2866666666667	0	n/a	355973	KeyDown	41324	2	Ring	29
593.5183333333333	0	n/a	356112	KeyDown	41324	4	Index	29
593.6933333333334	0	n/a	356217	KeyDown	41324	4	Index	29
594.2633333333333	0	n/a	356559	KeyDown	41324	1	Little	29
594.5866666666667	0	n/a	356753	KeyDown	41324	3	Middle	29
594.8783333333333	0	n/a	356928	KeyDown	41324	2	Ring	29
595.1783333333334	0	n/a	357108	KeyDown	41324	4	Index	29
595.3816666666667	0	n/a	357230	KeyDown	41324	4	Index	29
595.6533333333334	0	n/a	357393	KeyDown	41324	1	Little	29
595.9150000000001	0	n/a	357550	KeyDown	41324	3	Middle	29
596.1516666666668	0	n/a	357692	KeyDown	41324	2	Ring	29
596.3783333333333	0	n/a	357828	KeyDown	41324	4	Index	29
596.5933333333334	0	n/a	357957	KeyDown	41324	4	Index	29
597.1433333333333	0	n/a	358287	StopPractice	41324	n/a	n/a	29
597.1450000000000	0	n/a	358288	StartRest	XXXXX	n/a	n/a	29
607.1783333333334	0	n/a	364308	StopRest	XXXXX	n/a	n/a	29
607.1800000000001	0	UPPT001	364309	StartPractice	41324	n/a	n/a	30
607.5300000000001	0	n/a	364519	KeyDown	41324	4	Index	30
607.7716666666668	0	n/a	364664	KeyDown	41324	1	Little	30
608.0100000000000	0	n/a	364807	KeyDown	41324	3	Middle	30
608.2666666666667	0	n/a	364961	KeyDown	41324	2	Ring	30
608.4600000000000	0	n/a	365077	KeyDown	41324	4	Index	30
608.7183333333334	0	n/a	365232	KeyDown	41324	4	Index	30
609.2116666666667	0	n/a	365528	KeyDown	41324	1	Little	30
610.1533333333334	0	n/a	366093	KeyDown	41324	4	Index	30
610.6383333333333	0	n/a	366384	KeyDown	41324	3	Middle	30
612.9100000000001	0	n/a	367747	KeyDown	41324	4	Index	30
613.2383333333333	0	n/a	367944	KeyDown	41324	1	Little	30
613.5000000000000	0	n/a	368101	KeyDown	41324	3	Middle	30
613.7366666666667	0	n/a	368243	KeyDown	41324	2	Ring	30
613.9783333333334	0	n/a	368388	KeyDown	41324	4	Index	30
614.2583333333333	0	n/a	368556	KeyDown	41324	4	Index	30
614.4733333333334	0	n/a	368685	KeyDown	41324	1	Little	30
614.7233333333334	0	n/a	368835	KeyDown	41324	3	Middle	30
614.9400000000001	0	n/a	368965	KeyDown	41324	2	Ring	30
615.1416666666667	0	n/a	369086	KeyDown	41324	4	Index	30
615.3216666666667	0	n/a	369194	KeyDown	41324	4	Index	30
616.1566666666668	0	n/a	369695	KeyDown	41324	1	Little	30
616.7983333333334	0	n/a	370080	KeyDown	41324	4	Index	30
617.2183333333334	0	n/a	370332	StopPractice	41324	n/a	n/a	30
617.2200000000000	0	n/a	370333	StartRest	XXXXX	n/a	n/a	30
627.2533333333333	0	n/a	376353	StopRest	XXXXX	n/a	n/a	30
627.2550000000000	0	UPPT001	376354	StartPractice	41324	n/a	n/a	31
627.6050000000000	0	n/a	376564	KeyDown	41324	4	Index	31
627.8716666666667	0	n/a	376724	KeyDown	41324	1	Little	31
628.1566666666668	0	n/a	376895	KeyDown	41324	3	Middle	31
628.3916666666667	0	n/a	377036	KeyDown	41324	2	Ring	31
628.6266666666667	0	n/a	377177	KeyDown	41324	4	Index	31
628.8783333333333	0	n/a	377328	KeyDown	41324	4	Index	31
629.1300000000000	0	n/a	377479	KeyDown	41324	1	Little	31
629.4566666666667	0	n/a	377675	KeyDown	41324	3	Middle	31
629.7566666666667	0	n/a	377855	KeyDown	41324	2	Ring	31
629.9750000000000	0	n/a	377986	KeyDown	41324	4	Index	31
630.1966666666667	0	n/a	378119	KeyDown	41324	4	Index	31
630.4816666666667	0	n/a	378290	KeyDown	41324	1	Little	31
630.8333333333334	0	n/a	378501	KeyDown	41324	3	Middle	31
631.2233333333334	0	n/a	378735	KeyDown	41324	2	Ring	31
631.4866666666667	0	n/a	378893	KeyDown	41324	4	Index	31
632.3666666666667	0	n/a	379421	KeyDown	41324	1	Little	31
632.7050000000000	0	n/a	379624	KeyDown	41324	3	Middle	31
632.9883333333333	0	n/a	379794	KeyDown	41324	2	Ring	31
633.2533333333333	0	n/a	379953	KeyDown	41324	4	Index	31
633.4416666666667	0	n/a	380066	KeyDown	41324	4	Index	31
633.6766666666667	0	n/a	380207	KeyDown	41324	1	Little	31
634.0133333333333	0	n/a	380409	KeyDown	41324	3	Middle	31
634.2883333333334	0	n/a	380574	KeyDown	41324	2	Ring	31
634.6383333333333	0	n/a	380784	KeyDown	41324	4	Index	31
634.8283333333334	0	n/a	380898	KeyDown	41324	4	Index	31
635.8516666666667	0	n/a	381512	KeyDown	41324	1	Little	31
636.2133333333334	0	n/a	381729	KeyDown	41324	3	Middle	31
636.4550000000000	0	n/a	381874	KeyDown	41324	2	Ring	31
636.7233333333334	0	n/a	382035	KeyDown	41324	4	Index	31
636.9483333333334	0	n/a	382170	KeyDown	41324	4	Index	31
637.2933333333334	0	n/a	382377	StopPractice	41324	n/a	n/a	31
637.2950000000001	0	n/a	382378	StartRest	XXXXX	n/a	n/a	31
647.3283333333334	0	n/a	388398	StopRest	XXXXX	n/a	n/a	31
647.3300000000000	0	UPPT001	388399	StartPractice	41324	n/a	n/a	32
647.7550000000000	0	n/a	388654	KeyDown	41324	4	Index	32
648.0316666666668	0	n/a	388820	KeyDown	41324	1	Little	32
648.2850000000001	0	n/a	388972	KeyDown	41324	3	Middle	32
648.5316666666668	0	n/a	389120	KeyDown	41324	2	Ring	32
648.8016666666667	0	n/a	389282	KeyDown	41324	4	Index	32
649.0083333333333	0	n/a	389406	KeyDown	41324	4	Index	32
649.2683333333334	0	n/a	389562	KeyDown	41324	1	Little	32
649.5316666666668	0	n/a	389720	KeyDown	41324	3	Middle	32
649.7666666666668	0	n/a	389861	KeyDown	41324	2	Ring	32
650.0433333333334	0	n/a	390027	KeyDown	41324	4	Index	32
650.3016666666667	0	n/a	390182	KeyDown	41324	4	Index	32
650.5883333333334	0	n/a	390354	KeyDown	41324	1	Little	32
650.8950000000001	0	n/a	390538	KeyDown	41324	3	Middle	32
651.1383333333333	0	n/a	390684	KeyDown	41324	2	Ring	32
651.4433333333334	0	n/a	390867	KeyDown	41324	4	Index	32
651.6383333333333	0	n/a	390984	KeyDown	41324	4	Index	32
651.9066666666668	0	n/a	391145	KeyDown	41324	1	Little	32
652.2033333333334	0	n/a	391323	KeyDown	41324	3	Middle	32
652.4633333333334	0	n/a	391479	KeyDown	41324	2	Ring	32
652.6866666666667	0	n/a	391613	KeyDown	41324	4	Index	32
652.8783333333333	0	n/a	391728	KeyDown	41324	4	Index	32
653.1766666666667	0	n/a	391907	KeyDown	41324	1	Little	32
654.4066666666668	0	n/a	392645	KeyDown	41324	3	Middle	32
654.6350000000000	0	n/a	392782	KeyDown	41324	2	Ring	32
655.1716666666667	0	n/a	393104	KeyDown	41324	4	Index	32
655.3700000000000	0	n/a	393223	KeyDown	41324	4	Index	32
655.9466666666667	0	n/a	393569	KeyDown	41324	1	Little	32
656.2350000000000	0	n/a	393742	KeyDown	41324	3	Middle	32
656.4666666666667	0	n/a	393881	KeyDown	41324	2	Ring	32
656.7766666666668	0	n/a	394067	KeyDown	41324	4	Index	32
656.9883333333333	0	n/a	394194	KeyDown	41324	4	Index	32
657.3683333333333	0	n/a	394422	StopPractice	41324	n/a	n/a	32
657.3700000000000	0	n/a	394423	StartRest	XXXXX	n/a	n/a	32
667.4033333333334	0	n/a	400443	StopRest	XXXXX	n/a	n/a	32
667.4050000000001	0	UPPT001	400444	StartPractice	41324	n/a	n/a	33
667.7883333333334	0	n/a	400674	KeyDown	41324	4	Index	33
668.0283333333334	0	n/a	400818	KeyDown	41324	1	Little	33
668.2666666666668	0	n/a	400961	KeyDown	41324	3	Middle	33
668.5016666666667	0	n/a	401102	KeyDown	41324	2	Ring	33
668.7283333333334	0	n/a	401238	KeyDown	41324	4	Index	33
668.9866666666667	0	n/a	401393	KeyDown	41324	4	Index	33
669.2483333333333	0	n/a	401550	KeyDown	41324	1	Little	33
669.4966666666667	0	n/a	401699	KeyDown	41324	3	Middle	33
669.7516666666667	0	n/a	401852	KeyDown	41324	2	Ring	33
669.9700000000000	0	n/a	401983	KeyDown	41324	4	Index	33
670.1700000000001	0	n/a	402103	KeyDown	41324	4	Index	33
670.4733333333334	0	n/a	402285	KeyDown	41324	1	Little	33
671.2583333333333	0	n/a	402756	KeyDown	41324	3	Middle	33
671.5233333333334	0	n/a	402915	KeyDown	41324	2	Ring	33
672.4366666666667	0	n/a	403463	KeyDown	41324	4	Index	33
673.0816666666667	0	n/a	403850	KeyDown	41324	4	Index	33
673.3466666666667	0	n/a	404009	KeyDown	41324	1	Little	33
673.5866666666667	0	n/a	404153	KeyDown	41324	3	Middle	33
673.7933333333334	0	n/a	404277	KeyDown	41324	2	Ring	33
674.0416666666667	0	n/a	404426	KeyDown	41324	4	Index	33
674.3066666666667	0	n/a	404585	KeyDown	41324	4	Index	33
674.5816666666667	0	n/a	404750	KeyDown	41324	1	Little	33
674.8133333333334	0	n/a	404889	KeyDown	41324	3	Middle	33
675.0400000000001	0	n/a	405025	KeyDown	41324	2	Ring	33
675.3166666666667	0	n/a	405191	KeyDown	41324	4	Index	33
675.4800000000000	0	n/a	405289	KeyDown	41324	4	Index	33
676.3066666666667	0	n/a	405785	KeyDown	41324	1	Little	33
676.6083333333333	0	n/a	405966	KeyDown	41324	3	Middle	33
676.8500000000000	0	n/a	406111	KeyDown	41324	2	Ring	33
677.0733333333334	0	n/a	406245	KeyDown	41324	4	Index	33
677.2616666666667	0	n/a	406358	KeyDown	41324	4	Index	33
677.4433333333334	0	n/a	406467	StopPractice	41324	n/a	n/a	33
677.4450000000001	0	n/a	406468	StartRest	XXXXX	n/a	n/a	33
687.4783333333334	0	n/a	412488	StopRest	XXXXX	n/a	n/a	33
687.4800000000000	0	UPPT001	412489	StartPractice	41324	n/a	n/a	34
687.8583333333333	0	n/a	412716	KeyDown	41324	4	Index	34
688.0783333333334	0	n/a	412848	KeyDown	41324	1	Little	34
688.3166666666667	0	n/a	412991	KeyDown	41324	3	Middle	34
688.5616666666667	0	n/a	413138	KeyDown	41324	2	Ring	34
688.7900000000001	0	n/a	413275	KeyDown	41324	4	Index	34
689.0133333333333	0	n/a	413409	KeyDown	41324	4	Index	34
689.3216666666667	0	n/a	413594	KeyDown	41324	1	Little	34
689.5583333333334	0	n/a	413736	KeyDown	41324	3	Middle	34
689.7850000000001	0	n/a	413872	KeyDown	41324	2	Ring	34
689.9900000000000	0	n/a	413995	KeyDown	41324	4	Index	34
690.2083333333334	0	n/a	414126	KeyDown	41324	4	Index	34
690.6583333333334	0	n/a	414396	KeyDown	41324	1	Little	34
690.9283333333334	0	n/a	414558	KeyDown	41324	3	Middle	34
691.1633333333334	0	n/a	414699	KeyDown	41324	2	Ring	34
691.4050000000001	0	n/a	414844	KeyDown	41324	4	Index	34
691.6150000000000	0	n/a	414970	KeyDown	41324	4	Index	34
691.8883333333333	0	n/a	415134	KeyDown	41324	1	Little	34
692.1383333333333	0	n/a	415284	KeyDown	41324	3	Middle	34
692.3733333333333	0	n/a	415425	KeyDown	41324	2	Ring	34
692.6100000000000	0	n/a	415567	KeyDown	41324	4	Index	34
692.7983333333334	0	n/a	415680	KeyDown	41324	4	Index	34
693.4416666666667	0	n/a	416066	KeyDown	41324	1	Little	34
693.7100000000000	0	n/a	416227	KeyDown	41324	3	Middle	34
693.9250000000001	0	n/a	416356	KeyDown	41324	2	Ring	34
694.1450000000001	0	n/a	416488	KeyDown	41324	4	Index	34
694.3566666666667	0	n/a	416615	KeyDown	41324	4	Index	34
694.6016666666667	0	n/a	416762	KeyDown	41324	1	Little	34
694.8550000000000	0	n/a	416914	KeyDown	41324	3	Middle	34
695.0833333333334	0	n/a	417051	KeyDown	41324	2	Ring	34
695.3316666666667	0	n/a	417200	KeyDown	41324	4	Index	34
695.5333333333334	0	n/a	417321	KeyDown	41324	4	Index	34
695.8166666666667	0	n/a	417491	KeyDown	41324	1	Little	34
696.1383333333333	0	n/a	417684	KeyDown	41324	3	Middle	34
696.7850000000001	0	n/a	418072	KeyDown	41324	2	Ring	34
697.0966666666667	0	n/a	418259	KeyDown	41324	4	Index	34
697.2783333333334	0	n/a	418368	KeyDown	41324	4	Index	34
697.5183333333334	0	n/a	418512	StopPractice	41324	n/a	n/a	34
697.5200000000001	0	n/a	418513	StartRest	XXXXX	n/a	n/a	34
707.5533333333334	0	n/a	424533	StopRest	XXXXX	n/a	n/a	34
707.5550000000001	0	UPPT001	424534	StartPractice	41324	n/a	n/a	35
707.8933333333334	0	n/a	424737	KeyDown	41324	4	Index	35
708.1350000000000	0	n/a	424882	KeyDown	41324	1	Little	35
708.3633333333333	0	n/a	425019	KeyDown	41324	3	Middle	35
708.5900000000000	0	n/a	425155	KeyDown	41324	2	Ring	35
708.8100000000001	0	n/a	425287	KeyDown	41324	4	Index	35
709.0483333333334	0	n/a	425430	KeyDown	41324	4	Index	35
709.2900000000001	0	n/a	425575	KeyDown	41324	1	Little	35
709.5350000000001	0	n/a	425722	KeyDown	41324	3	Middle	35
709.7783333333334	0	n/a	425868	KeyDown	41324	2	Ring	35
709.9833333333333	0	n/a	425991	KeyDown	41324	4	Index	35
710.2083333333334	0	n/a	426126	KeyDown	41324	4	Index	35
710.4616666666667	0	n/a	426278	KeyDown	41324	1	Little	35
710.7983333333334	0	n/a	426480	KeyDown	41324	3	Middle	35
711.0766666666667	0	n/a	426647	KeyDown	41324	2	Ring	35
711.3333333333334	0	n/a	426801	KeyDown	41324	4	Index	35
711.5033333333333	0	n/a	426903	KeyDown	41324	4	Index	35
711.7350000000000	0	n/a	427042	KeyDown	41324	1	Little	35
712.1433333333334	0	n/a	427287	KeyDown	41324	3	Middle	35
712.3900000000001	0	n/a	427435	KeyDown	41324	2	Ring	35
712.6050000000000	0	n/a	427564	KeyDown	41324	4	Index	35
712.8183333333334	0	n/a	427692	KeyDown	41324	4	Index	35
713.0850000000000	0	n/a	427852	KeyDown	41324	1	Little	35
713.4116666666667	0	n/a	428048	KeyDown	41324	3	Middle	35
713.7450000000000	0	n/a	428248	KeyDown	41324	2	Ring	35
714.0433333333334	0	n/a	428427	KeyDown	41324	4	Index	35
714.2233333333334	0	n/a	428535	KeyDown	41324	4	Index	35
714.4866666666667	0	n/a	428693	KeyDown	41324	1	Little	35
714.8766666666667	0	n/a	428927	KeyDown	41324	3	Middle	35
715.0916666666667	0	n/a	429056	KeyDown	41324	2	Ring	35
715.3316666666667	0	n/a	429200	KeyDown	41324	4	Index	35
715.5250000000001	0	n/a	429316	KeyDown	41324	4	Index	35
715.7633333333334	0	n/a	429459	KeyDown	41324	1	Little	35
716.0283333333334	0	n/a	429618	KeyDown	41324	3	Middle	35
716.3166666666667	0	n/a	429791	KeyDown	41324	2	Ring	35
717.1783333333334	0	n/a	430308	KeyDown	41324	4	Index	35
717.3616666666667	0	n/a	430418	KeyDown	41324	4	Index	35
717.5933333333334	0	n/a	430557	StopPractice	41324	n/a	n/a	35
717.5950000000000	0	n/a	430558	StartRest	XXXXX	n/a	n/a	35
727.6266666666667	0	n/a	436577	StopRest	XXXXX	n/a	n/a	35
727.6283333333333	0	UPPT001	436578	StartPractice	41324	n/a	n/a	36
728.0850000000000	0	n/a	436852	KeyDown	41324	4	Index	36
728.3100000000001	0	n/a	436987	KeyDown	41324	1	Little	36
728.5566666666667	0	n/a	437135	KeyDown	41324	3	Middle	36
728.7700000000001	0	n/a	437263	KeyDown	41324	2	Ring	36
729.0150000000001	0	n/a	437410	KeyDown	41324	4	Index	36
729.2566666666667	0	n/a	437555	KeyDown	41324	4	Index	36
729.5066666666667	0	n/a	437705	KeyDown	41324	1	Little	36
729.7350000000000	0	n/a	437842	KeyDown	41324	3	Middle	36
729.9466666666667	0	n/a	437969	KeyDown	41324	2	Ring	36
730.1566666666668	0	n/a	438095	KeyDown	41324	4	Index	36
730.3283333333334	0	n/a	438198	KeyDown	41324	4	Index	36
730.5766666666667	0	n/a	438347	KeyDown	41324	1	Little	36
730.8350000000000	0	n/a	438502	KeyDown	41324	3	Middle	36
731.0283333333334	0	n/a	438618	KeyDown	41324	2	Ring	36
731.2450000000000	0	n/a	438748	KeyDown	41324	4	Index	36
731.4516666666667	0	n/a	438872	KeyDown	41324	4	Index	36
731.7100000000000	0	n/a	439027	KeyDown	41324	1	Little	36
732.4683333333334	0	n/a	439482	KeyDown	41324	3	Middle	36
732.7466666666667	0	n/a	439649	KeyDown	41324	2	Ring	36
733.0366666666667	0	n/a	439823	KeyDown	41324	4	Index	36
733.2350000000000	0	n/a	439942	KeyDown	41324	4	Index	36
733.9416666666667	0	n/a	440366	KeyDown	41324	1	Little	36
734.2716666666668	0	n/a	440564	KeyDown	41324	3	Middle	36
734.4933333333333	0	n/a	440697	KeyDown	41324	2	Ring	36
734.7266666666667	0	n/a	440837	KeyDown	41324	4	Index	36
734.9266666666667	0	n/a	440957	KeyDown	41324	4	Index	36
735.1083333333333	0	n/a	441066	KeyDown	41324	1	Little	36
735.3766666666667	0	n/a	441227	KeyDown	41324	3	Middle	36
735.5816666666667	0	n/a	441350	KeyDown	41324	2	Ring	36
735.8366666666667	0	n/a	441503	KeyDown	41324	4	Index	36
736.0250000000001	0	n/a	441616	KeyDown	41324	4	Index	36
736.8866666666668	0	n/a	442133	KeyDown	41324	1	Little	36
737.1816666666667	0	n/a	442310	KeyDown	41324	3	Middle	36
737.3966666666668	0	n/a	442439	KeyDown	41324	2	Ring	36
737.6666666666667	0	n/a	442601	StopPractice	41324	n/a	n/a	36
737.6683333333334	0	n/a	442602	StartRest	XXXXX	n/a	n/a	36
747.7033333333334	0	n/a	448623	StopRest	XXXXX	n/a	n/a	36
