onset	duration	channel	onset_sample_idx	event_type	target_sequence	keypress_id	finger_label	trial_number
31.2033333333333	0	UPPT001	18723	StartPractice	21342	n/a	n/a	1
33.9316666666667	0	n/a	20360	KeyDown	21342	2	Ring	1
34.2650000000000	0	n/a	20560	KeyDown	21342	1	Little	1
35.3100000000000	0	n/a	21187	KeyDown	21342	3	Middle	1
35.8400000000000	0	n/a	21505	KeyDown	21342	4	Index	1
36.2666666666667	0	n/a	21761	KeyDown	21342	2	Ring	1
36.7716666666667	0	n/a	22064	KeyDown	21342	2	Ring	1
37.0550000000000	0	n/a	22234	KeyDown	21342	1	Little	1
37.5016666666667	0	n/a	22502	KeyDown	21342	3	Middle	1
38.0650000000000	0	n/a	22840	KeyDown	21342	4	Index	1
38.5500000000000	0	n/a	23131	KeyDown	21342	2	Ring	1
38.9100000000000	0	n/a	23347	KeyDown	21342	2	Ring	1
39.2683333333333	0	n/a	23562	KeyDown	21342	1	Little	1
39.9533333333333	0	n/a	23973	KeyDown	21342	3	Middle	1
40.4466666666667	0	n/a	24269	KeyDown	21342	4	Index	1
40.9683333333333	0	n/a	24582	KeyDown	21342	1	Little	1
41.2416666666667	0	n/a	24746	StopPractice	21342	n/a	n/a	1
41.2433333333333	0	n/a	24747	StartRest	XXXXX	n/a	n/a	1
51.2800000000000	0	n/a	30769	StopRest	XXXXX	n/a	n/a	1
51.2816666666667	0	UPPT001	30770	StartPractice	42431	n/a	n/a	2
52.3366666666667	0	n/a	31403	KeyDown	42431	4	Index	2
52.7200000000000	0	n/a	31633	KeyDown	42431	2	Ring	2
53.0533333333333	0	n/a	31833	KeyDown	42431	4	Index	2
53.5700000000000	0	n/a	32143	KeyDown	42431	3	Middle	2
53.9133333333333	0	n/a	32349	KeyDown	42431	1	Little	2
54.3750000000000	0	n/a	32626	KeyDown	42431	4	Index	2
54.6950000000000	0	n/a	32818	KeyDown	42431	2	Ring	2
54.9783333333333	0	n/a	32988	KeyDown	42431	4	Index	2
55.2983333333333	0	n/a	33180	KeyDown	42431	3	Middle	2
55.6333333333333	0	n/a	33381	KeyDown	42431	1	Little	2
56.0333333333333	0	n/a	33621	KeyDown	42431	4	Index	2
56.3483333333333	0	n/a	33810	KeyDown	42431	2	Ring	2
56.9800000000000	0	n/a	34189	KeyDown	42431	4	Index	2
57.2783333333333	0	n/a	34368	KeyDown	42431	3	Middle	2
57.5550000000000	0	n/a	34534	KeyDown	42431	1	Little	2
57.8833333333333	0	n/a	34731	KeyDown	42431	4	Index	2
58.2000000000000	0	n/a	34921	KeyDown	42431	2	Ring	2
58.6350000000000	0	n/a	35182	KeyDown	42431	4	Index	2
59.1816666666667	0	n/a	35510	KeyDown	42431	3	Middle	2
59.4866666666667	0	n/a	35693	KeyDown	42431	1	Little	2
59.7966666666667	0	n/a	35879	KeyDown	42431	4	Index	2
60.1033333333333	0	n/a	36063	KeyDown	42431	2	Ring	2
60.4800000000000	0	n/a	36289	KeyDown	42431	4	Index	2
60.8983333333333	0	n/a	36540	KeyDown	42431	3	Middle	2
61.1333333333333	0	n/a	36681	KeyDown	42431	1	Little	2
61.3200000000000	0	n/a	36793	StopPractice	42431	n/a	n/a	2
61.3216666666667	0	n/a	36794	StartRest	XXXXX	n/a	n/a	2
71.3550000000000	0	n/a	42814	StopRest	XXXXX	n/a	n/a	2
71.3566666666667	0	UPPT001	42815	StartPractice	34231	n/a	n/a	3
72.3066666666667	0	n/a	43385	KeyDown	34231	3	Middle	3
72.7500000000000	0	n/a	43651	KeyDown	34231	4	Index	3
73.2266666666667	0	n/a	43937	KeyDown	34231	2	Ring	3
73.7400000000000	0	n/a	44245	KeyDown	34231	3	Middle	3
74.1333333333333	0	n/a	44481	KeyDown	34231	1	Little	3
74.8133333333333	0	n/a	44889	KeyDown	34231	3	Middle	3
75.2333333333333	0	n/a	45141	KeyDown	34231	4	Index	3
75.6366666666667	0	n/a	45383	KeyDown	34231	2	Ring	3
76.2000000000000	0	n/a	45721	KeyDown	34231	3	Middle	3
76.9000000000000	0	n/a	46141	KeyDown	34231	1	Little	3
77.9733333333333	0	n/a	46785	KeyDown	34231	3	Middle	3
78.2916666666667	0	n/a	46976	KeyDown	34231	4	Index	3
78.7066666666667	0	n/a	47225	KeyDown	34231	2	Ring	3
79.0683333333333	0	n/a	47442	KeyDown	34231	3	Middle	3
79.3850000000000	0	n/a	47632	KeyDown	34231	1	Little	3
79.9866666666667	0	n/a	47993	KeyDown	34231	3	Middle	3
80.2900000000000	0	n/a	48175	KeyDown	34231	4	Index	3
80.6583333333333	0	n/a	48396	KeyDown	34231	2	Ring	3
80.9600000000000	0	n/a	48577	KeyDown	34231	3	Middle	3
81.2483333333333	0	n/a	48750	KeyDown	34231	1	Little	3
81.3950000000000	0	n/a	48838	StopPractice	34231	n/a	n/a	3
81.3966666666667	0	n/a	48839	StartRest	XXXXX	n/a	n/a	3
91.4300000000000	0	n/a	54859	StopRest	XXXXX	n/a	n/a	3
91.4316666666667	0	UPPT001	54860	StartPractice	14342	n/a	n/a	4
92.0400000000000	0	n/a	55225	KeyDown	14342	1	Little	4
92.7633333333333	0	n/a	55659	KeyDown	14342	4	Index	4
93.4750000000000	0	n/a	56086	KeyDown	14342	3	Middle	4
93.9316666666667	0	n/a	56360	KeyDown	14342	4	Index	4
94.3533333333333	0	n/a	56613	KeyDown	14342	2	Ring	4
94.7016666666667	0	n/a	56822	KeyDown	14342	1	Little	4
95.0833333333333	0	n/a	57051	KeyDown	14342	4	Index	4
95.4766666666667	0	n/a	57287	KeyDown	14342	3	Middle	4
95.7866666666667	0	n/a	57473	KeyDown	14342	4	Index	4
96.1000000000000	0	n/a	57661	KeyDown	14342	2	Ring	4
96.4900000000000	0	n/a	57895	KeyDown	14342	1	Little	4
97.1183333333333	0	n/a	58272	KeyDown	14342	4	Index	4
97.7000000000000	0	n/a	58621	KeyDown	14342	3	Middle	4
98.0850000000000	0	n/a	58852	KeyDown	14342	4	Index	4
98.8050000000000	0	n/a	59284	KeyDown	14342	2	Ring	4
99.3100000000000	0	n/a	59587	KeyDown	14342	1	Little	4
99.7700000000000	0	n/a	59863	KeyDown	14342	4	Index	4
100.6650000000000	0	n/a	60400	KeyDown	14342	3	Middle	4
101.4700000000000	0	n/a	60883	StopPractice	14342	n/a	n/a	4
101.4716666666667	0	n/a	60884	StartRest	XXXXX	n/a	n/a	4
111.5066666666667	0	n/a	66905	StopRest	XXXXX	n/a	n/a	4
111.5083333333333	0	UPPT001	66906	StartPractice	32431	n/a	n/a	5
112.3666666666667	0	n/a	67421	KeyDown	32431	3	Middle	5
112.7616666666667	0	n/a	67658	KeyDown	32431	2	Ring	5
113.2000000000000	0	n/a	67921	KeyDown	32431	4	Index	5
113.7050000000000	0	n/a	68224	KeyDown	32431	3	Middle	5
114.0983333333333	0	n/a	68460	KeyDown	32431	1	Little	5
114.7966666666667	0	n/a	68879	KeyDown	32431	3	Middle	5
115.1233333333333	0	n/a	69075	KeyDown	32431	2	Ring	5
115.4616666666667	0	n/a	69278	KeyDown	32431	4	Index	5
115.9266666666667	0	n/a	69557	KeyDown	32431	3	Middle	5
116.2250000000000	0	n/a	69736	KeyDown	32431	1	Little	5
116.7250000000000	0	n/a	70036	KeyDown	32431	3	Middle	5
117.1066666666667	0	n/a	70265	KeyDown	32431	2	Ring	5
117.4833333333333	0	n/a	70491	KeyDown	32431	4	Index	5
117.9116666666667	0	n/a	70748	KeyDown	32431	3	Middle	5
118.1950000000000	0	n/a	70918	KeyDown	32431	1	Little	5
118.5916666666667	0	n/a	71156	KeyDown	32431	3	Middle	5
118.9800000000000	0	n/a	71389	KeyDown	32431	2	Ring	5
119.3066666666667	0	n/a	71585	KeyDown	32431	4	Index	5
119.6700000000000	0	n/a	71803	KeyDown	32431	3	Middle	5
119.9616666666667	0	n/a	71978	KeyDown	32431	1	Little	5
120.4066666666667	0	n/a	72245	KeyDown	32431	3	Middle	5
120.7566666666667	0	n/a	72455	KeyDown	32431	2	Ring	5
121.1766666666667	0	n/a	72707	KeyDown	32431	4	Index	5
121.5466666666667	0	n/a	72929	StopPractice	32431	n/a	n/a	5
121.5483333333333	0	n/a	72930	StartRest	XXXXX	n/a	n/a	5
131.5800000000000	0	n/a	78949	StopRest	XXXXX	n/a	n/a	5
131.5816666666667	0	UPPT001	78950	StartPractice	14231	n/a	n/a	6
132.2283333333334	0	n/a	79338	KeyDown	14231	1	Little	6
132.9216666666667	0	n/a	79754	KeyDown	14231	4	Index	6
133.5416666666667	0	n/a	80126	KeyDown	14231	2	Ring	6
133.9616666666667	0	n/a	80378	KeyDown	14231	3	Middle	6
134.3583333333333	0	n/a	80616	KeyDown	14231	1	Little	6
134.6900000000000	0	n/a	80815	KeyDown	14231	1	Little	6
135.0500000000000	0	n/a	81031	KeyDown	14231	4	Index	6
135.4283333333333	0	n/a	81258	KeyDown	14231	2	Ring	6
135.7550000000000	0	n/a	81454	KeyDown	14231	3	Middle	6
136.0633333333333	0	n/a	81639	KeyDown	14231	1	Little	6
136.4033333333333	0	n/a	81843	KeyDown	14231	1	Little	6
136.7133333333333	0	n/a	82029	KeyDown	14231	4	Index	6
137.1750000000000	0	n/a	82306	KeyDown	14231	2	Ring	6
137.5483333333333	0	n/a	82530	KeyDown	14231	3	Middle	6
137.9383333333333	0	n/a	82764	KeyDown	14231	1	Little	6
138.2600000000000	0	n/a	82957	KeyDown	14231	1	Little	6
138.6100000000000	0	n/a	83167	KeyDown	14231	4	Index	6
139.0583333333333	0	n/a	83436	KeyDown	14231	2	Ring	6
139.3916666666667	0	n/a	83636	KeyDown	14231	3	Middle	6
139.7516666666667	0	n/a	83852	KeyDown	14231	1	Little	6
140.0433333333334	0	n/a	84027	KeyDown	14231	1	Little	6
140.3283333333333	0	n/a	84198	KeyDown	14231	4	Index	6
140.6883333333333	0	n/a	84414	KeyDown	14231	2	Ring	6
140.9666666666667	0	n/a	84581	KeyDown	14231	3	Middle	6
141.3000000000000	0	n/a	84781	KeyDown	14231	1	Little	6
141.5683333333334	0	n/a	84942	KeyDown	14231	1	Little	6
141.6200000000000	0	n/a	84973	StopPractice	14231	n/a	n/a	6
141.6216666666667	0	n/a	84974	StartRest	XXXXX	n/a	n/a	6
151.6550000000000	0	n/a	90994	StopRest	XXXXX	n/a	n/a	6
151.6566666666667	0	UPPT001	90995	StartPractice	32421	n/a	n/a	7
152.3316666666667	0	n/a	91400	KeyDown	32421	3	Middle	7
152.8083333333333	0	n/a	91686	KeyDown	32421	2	Ring	7
153.1850000000000	0	n/a	91912	KeyDown	32421	4	Index	7
154.0583333333333	0	n/a	92436	KeyDown	32421	2	Ring	7
154.4450000000000	0	n/a	92668	KeyDown	32421	1	Little	7
154.9350000000000	0	n/a	92962	KeyDown	32421	3	Middle	7
155.2600000000000	0	n/a	93157	KeyDown	32421	2	Ring	7
155.5700000000000	0	n/a	93343	KeyDown	32421	4	Index	7
155.9950000000000	0	n/a	93598	KeyDown	32421	2	Ring	7
156.3250000000000	0	n/a	93796	KeyDown	32421	1	Little	7
156.8683333333333	0	n/a	94122	KeyDown	32421	3	Middle	7
157.2433333333333	0	n/a	94347	KeyDown	32421	2	Ring	7
157.5800000000000	0	n/a	94549	KeyDown	32421	4	Index	7
158.0733333333334	0	n/a	94845	KeyDown	32421	2	Ring	7
158.4133333333334	0	n/a	95049	KeyDown	32421	1	Little	7
158.7466666666667	0	n/a	95249	KeyDown	32421	3	Middle	7
159.0150000000000	0	n/a	95410	KeyDown	32421	2	Ring	7
159.3166666666667	0	n/a	95591	KeyDown	32421	4	Index	7
159.9566666666667	0	n/a	95975	KeyDown	32421	2	Ring	7
160.2800000000000	0	n/a	96169	KeyDown	32421	1	Little	7
160.9666666666667	0	n/a	96581	KeyDown	32421	3	Middle	7
161.2450000000000	0	n/a	96748	KeyDown	32421	2	Ring	7
161.5333333333333	0	n/a	96921	KeyDown	32421	4	Index	7
161.6950000000000	0	n/a	97018	StopPractice	32421	n/a	n/a	7
161.6966666666667	0	n/a	97019	StartRest	XXXXX	n/a	n/a	7
171.7300000000000	0	n/a	103039	StopRest	XXXXX	n/a	n/a	7
171.7316666666667	0	UPPT001	103040	StartPractice	23142	n/a	n/a	8
172.4583333333333	0	n/a	103476	KeyDown	23142	2	Ring	8
172.7800000000000	0	n/a	103669	KeyDown	23142	3	Middle	8
173.0950000000000	0	n/a	103858	KeyDown	23142	1	Little	8
173.4650000000000	0	n/a	104080	KeyDown	23142	4	Index	8
173.8266666666667	0	n/a	104297	KeyDown	23142	2	Ring	8
174.1766666666667	0	n/a	104507	KeyDown	23142	2	Ring	8
174.5233333333333	0	n/a	104715	KeyDown	23142	3	Middle	8
174.9516666666667	0	n/a	104972	KeyDown	23142	1	Little	8
175.4466666666667	0	n/a	105269	KeyDown	23142	4	Index	8
175.8750000000000	0	n/a	105526	KeyDown	23142	2	Ring	8
176.1983333333334	0	n/a	105720	KeyDown	23142	2	Ring	8
176.7850000000000	0	n/a	106072	KeyDown	23142	3	Middle	8
177.1500000000000	0	n/a	106291	KeyDown	23142	1	Little	8
177.6633333333334	0	n/a	106599	KeyDown	23142	4	Index	8
178.0500000000000	0	n/a	106831	KeyDown	23142	2	Ring	8
178.3550000000000	0	n/a	107014	KeyDown	23142	2	Ring	8
178.8000000000000	0	n/a	107281	KeyDown	23142	3	Middle	8
179.1950000000000	0	n/a	107518	KeyDown	23142	1	Little	8
179.6083333333333	0	n/a	107766	KeyDown	23142	4	Index	8
179.9550000000000	0	n/a	107974	KeyDown	23142	3	Middle	8
180.7450000000000	0	n/a	108448	KeyDown	23142	2	Ring	8
181.7700000000000	0	n/a	109063	StopPractice	23142	n/a	n/a	8
181.7716666666667	0	n/a	109064	StartRest	XXXXX	n/a	n/a	8
191.8050000000000	0	n/a	115084	StopRest	XXXXX	n/a	n/a	8
191.8066666666667	0	UPPT001	115085	StartPractice	42314	n/a	n/a	9
192.9933333333333	0	n/a	115797	KeyDown	42314	4	Index	9
193.3083333333333	0	n/a	115986	KeyDown	42314	2	Ring	9
193.5783333333333	0	n/a	116148	KeyDown	42314	3	Middle	9
193.9083333333334	0	n/a	116346	KeyDown	42314	1	Little	9
194.2550000000000	0	n/a	116554	KeyDown	42314	4	Index	9
194.5516666666667	0	n/a	116732	KeyDown	42314	4	Index	9
194.8616666666667	0	n/a	116918	KeyDown	42314	2	Ring	9
195.1150000000000	0	n/a	117070	KeyDown	42314	3	Middle	9
195.4316666666667	0	n/a	117260	KeyDown	42314	1	Little	9
195.7583333333334	0	n/a	117456	KeyDown	42314	4	Index	9
196.0016666666667	0	n/a	117602	KeyDown	42314	4	Index	9
196.2833333333334	0	n/a	117771	KeyDown	42314	2	Ring	9
196.5450000000000	0	n/a	117928	KeyDown	42314	3	Middle	9
196.8433333333333	0	n/a	118107	KeyDown	42314	1	Little	9
197.1283333333334	0	n/a	118278	KeyDown	42314	4	Index	9
197.3900000000000	0	n/a	118435	KeyDown	42314	4	Index	9
197.6433333333333	0	n/a	118587	KeyDown	42314	2	Ring	9
197.8800000000000	0	n/a	118729	KeyDown	42314	3	Middle	9
198.1150000000000	0	n/a	118870	KeyDown	42314	1	Little	9
198.6000000000000	0	n/a	119161	KeyDown	42314	4	Index	9
199.3050000000000	0	n/a	119584	KeyDown	42314	2	Ring	9
199.6316666666667	0	n/a	119780	KeyDown	42314	3	Middle	9
200.0016666666667	0	n/a	120002	KeyDown	42314	1	Little	9
200.3333333333333	0	n/a	120201	KeyDown	42314	4	Index	9
200.7233333333334	0	n/a	120435	KeyDown	42314	4	Index	9
201.2350000000000	0	n/a	120742	KeyDown	42314	1	Little	9
201.8450000000000	0	n/a	121108	StopPractice	42314	n/a	n/a	9
201.8466666666667	0	n/a	121109	StartRest	XXXXX	n/a	n/a	9
211.8816666666667	0	n/a	127130	StopRest	XXXXX	n/a	n/a	9
