onset	duration	channel	onset_sample_idx	event_type	target_sequence	keypress_id	finger_label	trial_number
-10.8750000000000	0	UPPT001	NaN	StartPractice	41324	n/a	n/a	1
-0.8366666666667	0	n/a	NaN	StopPractice	41324	n/a	n/a	1
-0.8350000000000	0	n/a	NaN	StartRest	XXXXX	n/a	n/a	1
9.1983333333333	0	n/a	5520	StopRest	XXXXX	n/a	n/a	1
9.2000000000000	0	UPPT001	5521	StartPractice	41324	n/a	n/a	2
10.2016666666667	0	n/a	6122	KeyDown	41324	4	Index	2
10.6416666666667	0	n/a	6386	KeyDown	41324	1	Little	2
11.1016666666667	0	n/a	6662	KeyDown	41324	2	Ring	2
11.5383333333333	0	n/a	6924	KeyDown	41324	3	Middle	2
11.9816666666667	0	n/a	7190	KeyDown	41324	4	Index	2
19.2383333333333	0	n/a	11544	StopPractice	41324	n/a	n/a	2
19.2400000000000	0	n/a	11545	StartRest	XXXXX	n/a	n/a	2
29.2733333333333	0	n/a	17565	StopRest	XXXXX	n/a	n/a	2
29.2750000000000	0	UPPT001	17566	StartPractice	41324	n/a	n/a	3
30.1766666666667	0	n/a	18107	KeyDown	41324	4	Index	3
31.1166666666667	0	n/a	18671	KeyDown	41324	1	Little	3
31.5683333333333	0	n/a	18942	KeyDown	41324	3	Middle	3
32.0500000000000	0	n/a	19231	KeyDown	41324	2	Ring	3
32.5666666666667	0	n/a	19541	KeyDown	41324	4	Index	3
39.3133333333333	0	n/a	23589	StopPractice	41324	n/a	n/a	3
39.3150000000000	0	n/a	23590	StartRest	XXXXX	n/a	n/a	3
49.3483333333333	0	n/a	29610	StopRest	XXXXX	n/a	n/a	3
49.3500000000000	0	UPPT001	29611	StartPractice	41324	n/a	n/a	4
50.1966666666667	0	n/a	30119	KeyDown	41324	4	Index	4
50.6833333333333	0	n/a	30411	KeyDown	41324	1	Little	4
51.1216666666667	0	n/a	30674	KeyDown	41324	3	Middle	4
51.5683333333333	0	n/a	30942	KeyDown	41324	2	Ring	4
52.0133333333333	0	n/a	31209	KeyDown	41324	4	Index	4
59.3883333333333	0	n/a	35634	StopPractice	41324	n/a	n/a	4
59.3900000000000	0	n/a	35635	StartRest	XXXXX	n/a	n/a	4
69.4233333333333	0	n/a	41655	StopRest	XXXXX	n/a	n/a	4
69.4250000000000	0	UPPT001	41656	StartPractice	41324	n/a	n/a	5
70.2883333333333	0	n/a	42174	KeyDown	41324	4	Index	5
70.5950000000000	0	n/a	42358	KeyDown	41324	1	Little	5
70.8466666666667	0	n/a	42509	KeyDown	41324	3	Middle	5
71.1266666666667	0	n/a	42677	KeyDown	41324	2	Ring	5
71.3766666666667	0	n/a	42827	KeyDown	41324	4	Index	5
71.7266666666667	0	n/a	43037	KeyDown	41324	4	Index	5
71.9716666666667	0	n/a	43184	KeyDown	41324	1	Little	5
72.2250000000000	0	n/a	43336	KeyDown	41324	3	Middle	5
72.4383333333333	0	n/a	43464	KeyDown	41324	2	Ring	5
72.7250000000000	0	n/a	43636	KeyDown	41324	4	Index	5
73.0483333333333	0	n/a	43830	KeyDown	41324	4	Index	5
73.3200000000000	0	n/a	43993	KeyDown	41324	1	Little	5
73.5533333333333	0	n/a	44133	KeyDown	41324	3	Middle	5
73.7700000000000	0	n/a	44263	KeyDown	41324	2	Ring	5
73.9983333333333	0	n/a	44400	KeyDown	41324	4	Index	5
74.3100000000000	0	n/a	44587	KeyDown	41324	4	Index	5
74.5866666666667	0	n/a	44753	KeyDown	41324	1	Little	5
74.7866666666667	0	n/a	44873	KeyDown	41324	3	Middle	5
74.9900000000000	0	n/a	44995	KeyDown	41324	2	Ring	5
75.1883333333333	0	n/a	45114	KeyDown	41324	4	Index	5
75.5483333333333	0	n/a	45330	KeyDown	41324	4	Index	5
75.7983333333333	0	n/a	45480	KeyDown	41324	1	Little	5
76.0050000000000	0	n/a	45604	KeyDown	41324	3	Middle	5
76.2066666666667	0	n/a	45725	KeyDown	41324	2	Ring	5
76.3916666666667	0	n/a	45836	KeyDown	41324	4	Index	5
76.8633333333333	0	n/a	46119	KeyDown	41324	4	Index	5
77.0950000000000	0	n/a	46258	KeyDown	41324	1	Little	5
77.2966666666667	0	n/a	46379	KeyDown	41324	3	Middle	5
77.4916666666667	0	n/a	46496	KeyDown	41324	2	Ring	5
77.7150000000000	0	n/a	46630	KeyDown	41324	4	Index	5
78.1016666666667	0	n/a	46862	KeyDown	41324	4	Index	5
78.3183333333333	0	n/a	46992	KeyDown	41324	1	Little	5
78.5066666666667	0	n/a	47105	KeyDown	41324	3	Middle	5
78.7000000000000	0	n/a	47221	KeyDown	41324	2	Ring	5
78.9266666666667	0	n/a	47357	KeyDown	41324	4	Index	5
79.3766666666667	0	n/a	47627	KeyDown	41324	4	Index	5
79.4633333333333	0	n/a	47679	StopPractice	41324	n/a	n/a	5
79.4650000000000	0	n/a	47680	StartRest	XXXXX	n/a	n/a	5
89.4983333333333	0	n/a	53700	StopRest	XXXXX	n/a	n/a	5
89.5000000000000	0	UPPT001	53701	StartPractice	41324	n/a	n/a	6
90.3250000000000	0	n/a	54196	KeyDown	41324	4	Index	6
90.5433333333333	0	n/a	54327	KeyDown	41324	1	Little	6
90.7283333333333	0	n/a	54438	KeyDown	41324	3	Middle	6
90.9166666666667	0	n/a	54551	KeyDown	41324	2	Ring	6
91.1100000000000	0	n/a	54667	KeyDown	41324	4	Index	6
91.4983333333333	0	n/a	54900	KeyDown	41324	4	Index	6
91.6866666666667	0	n/a	55013	KeyDown	41324	1	Little	6
91.8600000000000	0	n/a	55117	KeyDown	41324	3	Middle	6
92.0566666666667	0	n/a	55235	KeyDown	41324	2	Ring	6
92.2483333333333	0	n/a	55350	KeyDown	41324	4	Index	6
92.5816666666667	0	n/a	55550	KeyDown	41324	4	Index	6
92.7716666666667	0	n/a	55664	KeyDown	41324	1	Little	6
92.9583333333333	0	n/a	55776	KeyDown	41324	3	Middle	6
93.1500000000000	0	n/a	55891	KeyDown	41324	2	Ring	6
93.3216666666667	0	n/a	55994	KeyDown	41324	4	Index	6
93.6283333333333	0	n/a	56178	KeyDown	41324	4	Index	6
93.8083333333333	0	n/a	56286	KeyDown	41324	1	Little	6
93.9683333333333	0	n/a	56382	KeyDown	41324	3	Middle	6
94.1633333333333	0	n/a	56499	KeyDown	41324	2	Ring	6
94.3433333333333	0	n/a	56607	KeyDown	41324	4	Index	6
94.6616666666667	0	n/a	56798	KeyDown	41324	4	Index	6
94.8700000000000	0	n/a	56923	KeyDown	41324	1	Little	6
95.0616666666667	0	n/a	57038	KeyDown	41324	3	Middle	6
95.2600000000000	0	n/a	57157	KeyDown	41324	2	Ring	6
95.4366666666667	0	n/a	57263	KeyDown	41324	4	Index	6
95.7716666666667	0	n/a	57464	KeyDown	41324	4	Index	6
95.9616666666667	0	n/a	57578	KeyDown	41324	1	Little	6
96.1233333333333	0	n/a	57675	KeyDown	41324	3	Middle	6
96.3233333333333	0	n/a	57795	KeyDown	41324	2	Ring	6
96.4883333333333	0	n/a	57894	KeyDown	41324	4	Index	6
96.8116666666667	0	n/a	58088	KeyDown	41324	4	Index	6
96.9966666666667	0	n/a	58199	KeyDown	41324	1	Little	6
97.1400000000000	0	n/a	58285	KeyDown	41324	3	Middle	6
97.3350000000000	0	n/a	58402	KeyDown	41324	2	Ring	6
97.5200000000000	0	n/a	58513	KeyDown	41324	4	Index	6
97.8283333333333	0	n/a	58698	KeyDown	41324	4	Index	6
98.0066666666667	0	n/a	58805	KeyDown	41324	1	Little	6
98.1583333333333	0	n/a	58896	KeyDown	41324	3	Middle	6
98.3566666666667	0	n/a	59015	KeyDown	41324	2	Ring	6
98.5283333333333	0	n/a	59118	KeyDown	41324	4	Index	6
98.8050000000000	0	n/a	59284	KeyDown	41324	4	Index	6
99.0150000000000	0	n/a	59410	KeyDown	41324	1	Little	6
99.1283333333333	0	n/a	59478	KeyDown	41324	3	Middle	6
99.3383333333333	0	n/a	59604	KeyDown	41324	2	Ring	6
99.4833333333333	0	n/a	59691	KeyDown	41324	4	Index	6
99.5383333333333	0	n/a	59724	StopPractice	41324	n/a	n/a	6
99.5400000000000	0	n/a	59725	StartRest	XXXXX	n/a	n/a	6
109.5733333333333	0	n/a	65745	StopRest	XXXXX	n/a	n/a	6
109.5750000000000	0	UPPT001	65746	StartPractice	41324	n/a	n/a	7
110.2633333333333	0	n/a	66159	KeyDown	41324	4	Index	7
110.4833333333333	0	n/a	66291	KeyDown	41324	1	Little	7
110.6466666666667	0	n/a	66389	KeyDown	41324	3	Middle	7
110.8283333333333	0	n/a	66498	KeyDown	41324	2	Ring	7
110.9883333333333	0	n/a	66594	KeyDown	41324	4	Index	7
111.2683333333333	0	n/a	66762	KeyDown	41324	4	Index	7
111.4616666666667	0	n/a	66878	KeyDown	41324	1	Little	7
111.6283333333333	0	n/a	66978	KeyDown	41324	3	Middle	7
111.8116666666667	0	n/a	67088	KeyDown	41324	2	Ring	7
112.0083333333333	0	n/a	67206	KeyDown	41324	4	Index	7
112.2733333333333	0	n/a	67365	KeyDown	41324	4	Index	7
112.4483333333333	0	n/a	67470	KeyDown	41324	1	Little	7
112.6033333333333	0	n/a	67563	KeyDown	41324	3	Middle	7
112.7716666666667	0	n/a	67664	KeyDown	41324	2	Ring	7
112.9516666666667	0	n/a	67772	KeyDown	41324	4	Index	7
113.2016666666667	0	n/a	67922	KeyDown	41324	4	Index	7
113.3716666666667	0	n/a	68024	KeyDown	41324	1	Little	7
113.5083333333333	0	n/a	68106	KeyDown	41324	3	Middle	7
113.6816666666667	0	n/a	68210	KeyDown	41324	2	Ring	7
113.8333333333333	0	n/a	68301	KeyDown	41324	4	Index	7
114.1016666666667	0	n/a	68462	KeyDown	41324	4	Index	7
114.2716666666667	0	n/a	68564	KeyDown	41324	1	Little	7
114.4366666666667	0	n/a	68663	KeyDown	41324	3	Middle	7
114.5900000000000	0	n/a	68755	KeyDown	41324	2	Ring	7
114.7566666666667	0	n/a	68855	KeyDown	41324	4	Index	7
115.1333333333333	0	n/a	69081	KeyDown	41324	4	Index	7
115.3050000000000	0	n/a	69184	KeyDown	41324	1	Little	7
115.4516666666667	0	n/a	69272	KeyDown	41324	3	Middle	7
115.6483333333333	0	n/a	69390	KeyDown	41324	2	Ring	7
115.7933333333333	0	n/a	69477	KeyDown	41324	4	Index	7
116.0633333333333	0	n/a	69639	KeyDown	41324	4	Index	7
116.2550000000000	0	n/a	69754	KeyDown	41324	1	Little	7
116.3900000000000	0	n/a	69835	KeyDown	41324	3	Middle	7
116.5583333333333	0	n/a	69936	KeyDown	41324	2	Ring	7
116.7483333333333	0	n/a	70050	KeyDown	41324	4	Index	7
117.0150000000000	0	n/a	70210	KeyDown	41324	4	Index	7
117.2033333333333	0	n/a	70323	KeyDown	41324	1	Little	7
117.3333333333333	0	n/a	70401	KeyDown	41324	3	Middle	7
117.4916666666667	0	n/a	70496	KeyDown	41324	2	Ring	7
117.6666666666667	0	n/a	70601	KeyDown	41324	4	Index	7
117.9366666666667	0	n/a	70763	KeyDown	41324	4	Index	7
118.1350000000000	0	n/a	70882	KeyDown	41324	1	Little	7
118.2500000000000	0	n/a	70951	KeyDown	41324	3	Middle	7
118.4483333333333	0	n/a	71070	KeyDown	41324	2	Ring	7
118.6150000000000	0	n/a	71170	KeyDown	41324	4	Index	7
118.9116666666667	0	n/a	71348	KeyDown	41324	4	Index	7
119.0950000000000	0	n/a	71458	KeyDown	41324	1	Little	7
119.2183333333333	0	n/a	71532	KeyDown	41324	3	Middle	7
119.3983333333333	0	n/a	71640	KeyDown	41324	2	Ring	7
119.5816666666667	0	n/a	71750	KeyDown	41324	4	Index	7
119.6133333333333	0	n/a	71769	StopPractice	41324	n/a	n/a	7
119.6150000000000	0	n/a	71770	StartRest	XXXXX	n/a	n/a	7
129.6650000000000	0	n/a	77800	StopRest	XXXXX	n/a	n/a	7
129.6666666666667	0	UPPT001	77801	StartPractice	41324	n/a	n/a	8
130.2050000000000	0	n/a	78124	KeyDown	41324	4	Index	8
130.3533333333334	0	n/a	78213	KeyDown	41324	1	Little	8
130.4800000000000	0	n/a	78289	KeyDown	41324	3	Middle	8
130.6350000000000	0	n/a	78382	KeyDown	41324	2	Ring	8
130.8083333333333	0	n/a	78486	KeyDown	41324	4	Index	8
131.0633333333333	0	n/a	78639	KeyDown	41324	4	Index	8
131.2250000000000	0	n/a	78736	KeyDown	41324	1	Little	8
131.3483333333333	0	n/a	78810	KeyDown	41324	3	Middle	8
131.5200000000000	0	n/a	78913	KeyDown	41324	2	Ring	8
131.6883333333333	0	n/a	79014	KeyDown	41324	4	Index	8
131.9633333333333	0	n/a	79179	KeyDown	41324	4	Index	8
132.1133333333333	0	n/a	79269	KeyDown	41324	1	Little	8
132.2350000000000	0	n/a	79342	KeyDown	41324	3	Middle	8
132.4000000000000	0	n/a	79441	KeyDown	41324	2	Ring	8
132.6000000000000	0	n/a	79561	KeyDown	41324	4	Index	8
133.1433333333333	0	n/a	79887	KeyDown	41324	4	Index	8
133.3133333333333	0	n/a	79989	KeyDown	41324	1	Little	8
133.5033333333333	0	n/a	80103	KeyDown	41324	3	Middle	8
133.6483333333333	0	n/a	80190	KeyDown	41324	2	Ring	8
133.8416666666667	0	n/a	80306	KeyDown	41324	4	Index	8
134.1250000000000	0	n/a	80476	KeyDown	41324	4	Index	8
134.2650000000000	0	n/a	80560	KeyDown	41324	1	Little	8
134.4533333333333	0	n/a	80673	KeyDown	41324	3	Middle	8
134.6100000000000	0	n/a	80767	KeyDown	41324	2	Ring	8
134.7983333333333	0	n/a	80880	KeyDown	41324	4	Index	8
135.0816666666667	0	n/a	81050	KeyDown	41324	4	Index	8
135.2233333333333	0	n/a	81135	KeyDown	41324	1	Little	8
135.3966666666667	0	n/a	81239	KeyDown	41324	3	Middle	8
135.5533333333333	0	n/a	81333	KeyDown	41324	2	Ring	8
135.7483333333333	0	n/a	81450	KeyDown	41324	4	Index	8
136.0466666666667	0	n/a	81629	KeyDown	41324	4	Index	8
136.2066666666667	0	n/a	81725	KeyDown	41324	1	Little	8
136.3350000000000	0	n/a	81802	KeyDown	41324	3	Middle	8
136.5083333333334	0	n/a	81906	KeyDown	41324	2	Ring	8
136.7000000000000	0	n/a	82021	KeyDown	41324	4	Index	8
136.9933333333333	0	n/a	82197	KeyDown	41324	4	Index	8
137.1333333333334	0	n/a	82281	KeyDown	41324	1	Little	8
137.2850000000000	0	n/a	82372	KeyDown	41324	3	Middle	8
137.4533333333333	0	n/a	82473	KeyDown	41324	2	Ring	8
137.6283333333333	0	n/a	82578	KeyDown	41324	4	Index	8
137.9383333333333	0	n/a	82764	KeyDown	41324	4	Index	8
138.0900000000000	0	n/a	82855	KeyDown	41324	1	Little	8
138.2883333333334	0	n/a	82974	KeyDown	41324	3	Middle	8
138.4266666666667	0	n/a	83057	KeyDown	41324	2	Ring	8
138.5866666666667	0	n/a	83153	KeyDown	41324	4	Index	8
138.9333333333333	0	n/a	83361	KeyDown	41324	4	Index	8
139.1333333333334	0	n/a	83481	KeyDown	41324	1	Little	8
139.3000000000000	0	n/a	83581	KeyDown	41324	3	Middle	8
139.4566666666667	0	n/a	83675	KeyDown	41324	2	Ring	8
139.6350000000000	0	n/a	83782	KeyDown	41324	4	Index	8
139.7050000000000	0	n/a	83824	StopPractice	41324	n/a	n/a	8
139.7066666666667	0	n/a	83825	StartRest	XXXXX	n/a	n/a	8
149.7400000000000	0	n/a	89845	StopRest	XXXXX	n/a	n/a	8
149.7416666666667	0	UPPT001	89846	StartPractice	41324	n/a	n/a	9
150.1650000000000	0	n/a	90100	KeyDown	41324	4	Index	9
150.3166666666667	0	n/a	90191	KeyDown	41324	1	Little	9
150.4783333333334	0	n/a	90288	KeyDown	41324	3	Middle	9
150.6316666666667	0	n/a	90380	KeyDown	41324	2	Ring	9
150.7950000000000	0	n/a	90478	KeyDown	41324	4	Index	9
151.0783333333333	0	n/a	90648	KeyDown	41324	4	Index	9
151.2483333333333	0	n/a	90750	KeyDown	41324	1	Little	9
151.3733333333333	0	n/a	90825	KeyDown	41324	3	Middle	9
151.5283333333333	0	n/a	90918	KeyDown	41324	2	Ring	9
151.7250000000000	0	n/a	91036	KeyDown	41324	4	Index	9
152.0266666666667	0	n/a	91217	KeyDown	41324	4	Index	9
152.1683333333334	0	n/a	91302	KeyDown	41324	1	Little	9
152.3150000000000	0	n/a	91390	KeyDown	41324	3	Middle	9
152.4683333333333	0	n/a	91482	KeyDown	41324	2	Ring	9
152.6650000000000	0	n/a	91600	KeyDown	41324	4	Index	9
152.9566666666667	0	n/a	91775	KeyDown	41324	4	Index	9
153.1100000000000	0	n/a	91867	KeyDown	41324	1	Little	9
153.2433333333333	0	n/a	91947	KeyDown	41324	3	Middle	9
153.4233333333333	0	n/a	92055	KeyDown	41324	2	Ring	9
153.5716666666667	0	n/a	92144	KeyDown	41324	4	Index	9
153.9100000000000	0	n/a	92347	KeyDown	41324	4	Index	9
154.0383333333334	0	n/a	92424	KeyDown	41324	1	Little	9
154.1900000000000	0	n/a	92515	KeyDown	41324	3	Middle	9
154.3433333333333	0	n/a	92607	KeyDown	41324	2	Ring	9
154.5400000000000	0	n/a	92725	KeyDown	41324	4	Index	9
154.8766666666667	0	n/a	92927	KeyDown	41324	4	Index	9
155.0566666666667	0	n/a	93035	KeyDown	41324	1	Little	9
155.1666666666667	0	n/a	93101	KeyDown	41324	3	Middle	9
155.4700000000000	0	n/a	93283	KeyDown	41324	4	Index	9
155.7450000000000	0	n/a	93448	KeyDown	41324	2	Ring	9
156.0350000000000	0	n/a	93622	KeyDown	41324	4	Index	9
156.4383333333333	0	n/a	93864	KeyDown	41324	4	Index	9
156.5783333333333	0	n/a	93948	KeyDown	41324	1	Little	9
156.7600000000000	0	n/a	94057	KeyDown	41324	3	Middle	9
156.9550000000000	0	n/a	94174	KeyDown	41324	2	Ring	9
157.1550000000000	0	n/a	94294	KeyDown	41324	4	Index	9
157.4983333333333	0	n/a	94500	KeyDown	41324	4	Index	9
157.6283333333333	0	n/a	94578	KeyDown	41324	1	Little	9
157.8033333333333	0	n/a	94683	KeyDown	41324	3	Middle	9
157.9533333333333	0	n/a	94773	KeyDown	41324	2	Ring	9
158.1583333333333	0	n/a	94896	KeyDown	41324	4	Index	9
158.4550000000000	0	n/a	95074	KeyDown	41324	4	Index	9
158.5950000000000	0	n/a	95158	KeyDown	41324	1	Little	9
158.7433333333333	0	n/a	95247	KeyDown	41324	3	Middle	9
158.9000000000000	0	n/a	95341	KeyDown	41324	2	Ring	9
159.0783333333333	0	n/a	95448	KeyDown	41324	4	Index	9
159.3750000000000	0	n/a	95626	KeyDown	41324	4	Index	9
159.5200000000000	0	n/a	95713	KeyDown	41324	1	Little	9
159.6716666666667	0	n/a	95804	KeyDown	41324	3	Middle	9
159.7800000000000	0	n/a	95869	StopPractice	41324	n/a	n/a	9
159.7816666666667	0	n/a	95870	StartRest	XXXXX	n/a	n/a	9
169.8133333333333	0	n/a	101889	StopRest	XXXXX	n/a	n/a	9
169.8150000000000	0	UPPT001	101890	StartPractice	41324	n/a	n/a	10
170.3183333333334	0	n/a	102192	KeyDown	41324	4	Index	10
170.4833333333333	0	n/a	102291	KeyDown	41324	1	Little	10
170.6333333333334	0	n/a	102381	KeyDown	41324	3	Middle	10
170.7733333333333	0	n/a	102465	KeyDown	41324	2	Ring	10
170.9466666666667	0	n/a	102569	KeyDown	41324	4	Index	10
171.2500000000000	0	n/a	102751	KeyDown	41324	4	Index	10
171.3883333333333	0	n/a	102834	KeyDown	41324	1	Little	10
171.5366666666667	0	n/a	102923	KeyDown	41324	3	Middle	10
171.7016666666667	0	n/a	103022	KeyDown	41324	2	Ring	10
171.8866666666667	0	n/a	103133	KeyDown	41324	4	Index	10
172.1633333333334	0	n/a	103299	KeyDown	41324	4	Index	10
172.3033333333333	0	n/a	103383	KeyDown	41324	1	Little	10
172.4516666666667	0	n/a	103472	KeyDown	41324	3	Middle	10
172.6216666666667	0	n/a	103574	KeyDown	41324	2	Ring	10
172.7916666666667	0	n/a	103676	KeyDown	41324	4	Index	10
173.0866666666667	0	n/a	103853	KeyDown	41324	4	Index	10
173.2166666666667	0	n/a	103931	KeyDown	41324	1	Little	10
173.3883333333333	0	n/a	104034	KeyDown	41324	3	Middle	10
173.5383333333334	0	n/a	104124	KeyDown	41324	2	Ring	10
173.7233333333334	0	n/a	104235	KeyDown	41324	4	Index	10
174.0283333333333	0	n/a	104418	KeyDown	41324	4	Index	10
174.2000000000000	0	n/a	104521	KeyDown	41324	1	Little	10
174.3516666666667	0	n/a	104612	KeyDown	41324	3	Middle	10
174.5266666666667	0	n/a	104717	KeyDown	41324	2	Ring	10
174.7083333333333	0	n/a	104826	KeyDown	41324	4	Index	10
175.0000000000000	0	n/a	105001	KeyDown	41324	4	Index	10
175.1483333333333	0	n/a	105090	KeyDown	41324	1	Little	10
175.3083333333333	0	n/a	105186	KeyDown	41324	3	Middle	10
175.4550000000000	0	n/a	105274	KeyDown	41324	2	Ring	10
175.6383333333333	0	n/a	105384	KeyDown	41324	4	Index	10
175.9283333333333	0	n/a	105558	KeyDown	41324	4	Index	10
176.0683333333334	0	n/a	105642	KeyDown	41324	1	Little	10
176.2366666666667	0	n/a	105743	KeyDown	41324	3	Middle	10
176.3950000000000	0	n/a	105838	KeyDown	41324	2	Ring	10
176.5883333333333	0	n/a	105954	KeyDown	41324	4	Index	10
176.8566666666667	0	n/a	106115	KeyDown	41324	4	Index	10
177.0200000000000	0	n/a	106213	KeyDown	41324	1	Little	10
177.1716666666667	0	n/a	106304	KeyDown	41324	3	Middle	10
177.3416666666667	0	n/a	106406	KeyDown	41324	2	Ring	10
177.5250000000000	0	n/a	106516	KeyDown	41324	4	Index	10
177.8066666666667	0	n/a	106685	KeyDown	41324	4	Index	10
177.9483333333334	0	n/a	106770	KeyDown	41324	1	Little	10
178.1316666666667	0	n/a	106880	KeyDown	41324	3	Middle	10
178.2850000000000	0	n/a	106972	KeyDown	41324	2	Ring	10
178.4550000000000	0	n/a	107074	KeyDown	41324	4	Index	10
178.7333333333333	0	n/a	107241	KeyDown	41324	4	Index	10
178.8866666666667	0	n/a	107333	KeyDown	41324	1	Little	10
179.0333333333333	0	n/a	107421	KeyDown	41324	3	Middle	10
179.1983333333334	0	n/a	107520	KeyDown	41324	2	Ring	10
179.3783333333334	0	n/a	107628	KeyDown	41324	4	Index	10
179.6583333333333	0	n/a	107796	KeyDown	41324	4	Index	10
179.8050000000000	0	n/a	107884	KeyDown	41324	1	Little	10
179.8533333333334	0	n/a	107913	StopPractice	41324	n/a	n/a	10
179.8550000000000	0	n/a	107914	StartRest	XXXXX	n/a	n/a	10
189.9050000000000	0	n/a	113944	StopRest	XXXXX	n/a	n/a	10
189.9066666666667	0	UPPT001	113945	StartPractice	41324	n/a	n/a	11
190.3683333333333	0	n/a	114222	KeyDown	41324	4	Index	11
190.5183333333333	0	n/a	114312	KeyDown	41324	1	Little	11
190.6950000000000	0	n/a	114418	KeyDown	41324	3	Middle	11
190.8366666666667	0	n/a	114503	KeyDown	41324	2	Ring	11
191.0366666666667	0	n/a	114623	KeyDown	41324	4	Index	11
191.3083333333333	0	n/a	114786	KeyDown	41324	4	Index	11
191.4700000000000	0	n/a	114883	KeyDown	41324	1	Little	11
191.6100000000000	0	n/a	114967	KeyDown	41324	3	Middle	11
191.7600000000000	0	n/a	115057	KeyDown	41324	2	Ring	11
191.9700000000000	0	n/a	115183	KeyDown	41324	4	Index	11
192.2316666666667	0	n/a	115340	KeyDown	41324	4	Index	11
192.3766666666667	0	n/a	115427	KeyDown	41324	1	Little	11
192.5350000000000	0	n/a	115522	KeyDown	41324	3	Middle	11
192.6933333333334	0	n/a	115617	KeyDown	41324	2	Ring	11
192.8833333333334	0	n/a	115731	KeyDown	41324	4	Index	11
193.1783333333333	0	n/a	115908	KeyDown	41324	4	Index	11
193.3316666666667	0	n/a	116000	KeyDown	41324	1	Little	11
193.4833333333333	0	n/a	116091	KeyDown	41324	3	Middle	11
193.6333333333334	0	n/a	116181	KeyDown	41324	2	Ring	11
193.8350000000000	0	n/a	116302	KeyDown	41324	4	Index	11
194.1233333333333	0	n/a	116475	KeyDown	41324	4	Index	11
194.2783333333333	0	n/a	116568	KeyDown	41324	1	Little	11
194.4350000000000	0	n/a	116662	KeyDown	41324	3	Middle	11
194.5833333333333	0	n/a	116751	KeyDown	41324	2	Ring	11
194.7650000000000	0	n/a	116860	KeyDown	41324	4	Index	11
195.2233333333334	0	n/a	117135	KeyDown	41324	4	Index	11
195.3600000000000	0	n/a	117217	KeyDown	41324	1	Little	11
195.5583333333333	0	n/a	117336	KeyDown	41324	3	Middle	11
195.7333333333333	0	n/a	117441	KeyDown	41324	2	Ring	11
195.8950000000000	0	n/a	117538	KeyDown	41324	4	Index	11
196.2000000000000	0	n/a	117721	KeyDown	41324	4	Index	11
196.5566666666667	0	n/a	117935	KeyDown	41324	1	Little	11
196.8500000000000	0	n/a	118111	KeyDown	41324	3	Middle	11
196.9783333333334	0	n/a	118188	KeyDown	41324	2	Ring	11
197.1700000000000	0	n/a	118303	KeyDown	41324	4	Index	11
197.4433333333334	0	n/a	118467	KeyDown	41324	4	Index	11
197.5933333333333	0	n/a	118557	KeyDown	41324	1	Little	11
197.7800000000000	0	n/a	118669	KeyDown	41324	3	Middle	11
197.9283333333333	0	n/a	118758	KeyDown	41324	2	Ring	11
198.1350000000000	0	n/a	118882	KeyDown	41324	4	Index	11
198.4266666666667	0	n/a	119057	KeyDown	41324	4	Index	11
198.5700000000000	0	n/a	119143	KeyDown	41324	1	Little	11
198.7550000000000	0	n/a	119254	KeyDown	41324	3	Middle	11
198.8966666666667	0	n/a	119339	KeyDown	41324	2	Ring	11
199.1083333333333	0	n/a	119466	KeyDown	41324	4	Index	11
199.4083333333334	0	n/a	119646	KeyDown	41324	4	Index	11
199.5483333333333	0	n/a	119730	KeyDown	41324	1	Little	11
199.7250000000000	0	n/a	119836	KeyDown	41324	3	Middle	11
199.8666666666667	0	n/a	119921	KeyDown	41324	2	Ring	11
199.9450000000000	0	n/a	119968	StopPractice	41324	n/a	n/a	11
199.9466666666667	0	n/a	119969	StartRest	XXXXX	n/a	n/a	11
209.9966666666667	0	n/a	125999	StopRest	XXXXX	n/a	n/a	11
209.9983333333333	0	UPPT001	126000	StartPractice	41324	n/a	n/a	12
210.4066666666667	0	n/a	126245	KeyDown	41324	4	Index	12
210.5450000000000	0	n/a	126328	KeyDown	41324	1	Little	12
210.6866666666667	0	n/a	126413	KeyDown	41324	3	Middle	12
210.8250000000000	0	n/a	126496	KeyDown	41324	2	Ring	12
210.9966666666667	0	n/a	126599	KeyDown	41324	4	Index	12
211.2800000000000	0	n/a	126769	KeyDown	41324	4	Index	12
211.4050000000000	0	n/a	126844	KeyDown	41324	1	Little	12
211.5650000000000	0	n/a	126940	KeyDown	41324	3	Middle	12
211.6933333333334	0	n/a	127017	KeyDown	41324	2	Ring	12
211.8800000000000	0	n/a	127129	KeyDown	41324	4	Index	12
212.1616666666667	0	n/a	127298	KeyDown	41324	4	Index	12
212.3000000000000	0	n/a	127381	KeyDown	41324	1	Little	12
212.4366666666667	0	n/a	127463	KeyDown	41324	3	Middle	12
212.5950000000000	0	n/a	127558	KeyDown	41324	2	Ring	12
212.7766666666667	0	n/a	127667	KeyDown	41324	4	Index	12
213.0466666666667	0	n/a	127829	KeyDown	41324	4	Index	12
213.1750000000000	0	n/a	127906	KeyDown	41324	1	Little	12
213.3400000000000	0	n/a	128005	KeyDown	41324	3	Middle	12
213.4750000000000	0	n/a	128086	KeyDown	41324	2	Ring	12
213.6633333333334	0	n/a	128199	KeyDown	41324	4	Index	12
213.9300000000000	0	n/a	128359	KeyDown	41324	4	Index	12
214.0550000000000	0	n/a	128434	KeyDown	41324	1	Little	12
214.2083333333333	0	n/a	128526	KeyDown	41324	3	Middle	12
214.3766666666667	0	n/a	128627	KeyDown	41324	2	Ring	12
214.5550000000000	0	n/a	128734	KeyDown	41324	4	Index	12
214.9483333333334	0	n/a	128970	KeyDown	41324	4	Index	12
215.1066666666667	0	n/a	129065	KeyDown	41324	1	Little	12
215.2983333333333	0	n/a	129180	KeyDown	41324	3	Middle	12
215.4850000000000	0	n/a	129292	KeyDown	41324	2	Ring	12
215.6533333333333	0	n/a	129393	KeyDown	41324	4	Index	12
215.9750000000000	0	n/a	129586	KeyDown	41324	4	Index	12
216.1500000000000	0	n/a	129691	KeyDown	41324	1	Little	12
216.3333333333333	0	n/a	129801	KeyDown	41324	3	Middle	12
216.4816666666667	0	n/a	129890	KeyDown	41324	2	Ring	12
216.6350000000000	0	n/a	129982	KeyDown	41324	4	Index	12
216.9216666666667	0	n/a	130154	KeyDown	41324	4	Index	12
217.0966666666667	0	n/a	130259	KeyDown	41324	1	Little	12
217.2716666666667	0	n/a	130364	KeyDown	41324	3	Middle	12
217.4616666666667	0	n/a	130478	KeyDown	41324	2	Ring	12
217.6350000000000	0	n/a	130582	KeyDown	41324	4	Index	12
217.9500000000000	0	n/a	130771	KeyDown	41324	4	Index	12
218.0850000000000	0	n/a	130852	KeyDown	41324	1	Little	12
218.2966666666667	0	n/a	130979	KeyDown	41324	3	Middle	12
218.4416666666667	0	n/a	131066	KeyDown	41324	2	Ring	12
218.6166666666667	0	n/a	131171	KeyDown	41324	4	Index	12
218.9416666666667	0	n/a	131366	KeyDown	41324	4	Index	12
219.1216666666667	0	n/a	131474	KeyDown	41324	3	Middle	12
219.2566666666667	0	n/a	131555	KeyDown	41324	1	Little	12
219.5166666666667	0	n/a	131711	KeyDown	41324	3	Middle	12
219.7166666666667	0	n/a	131831	KeyDown	41324	4	Index	12
220.0366666666667	0	n/a	132023	StopPractice	41324	n/a	n/a	12
220.0383333333334	0	n/a	132024	StartRest	XXXXX	n/a	n/a	12
230.0716666666667	0	n/a	138044	StopRest	XXXXX	n/a	n/a	12
230.0733333333334	0	UPPT001	138045	StartPractice	41324	n/a	n/a	13
230.6000000000000	0	n/a	138361	KeyDown	41324	4	Index	13
230.7133333333333	0	n/a	138429	KeyDown	41324	1	Little	13
230.8600000000000	0	n/a	138517	KeyDown	41324	3	Middle	13
230.9933333333333	0	n/a	138597	KeyDown	41324	2	Ring	13
231.1716666666667	0	n/a	138704	KeyDown	41324	4	Index	13
231.4550000000000	0	n/a	138874	KeyDown	41324	4	Index	13
231.5916666666667	0	n/a	138956	KeyDown	41324	1	Little	13
231.7233333333334	0	n/a	139035	KeyDown	41324	3	Middle	13
231.8616666666667	0	n/a	139118	KeyDown	41324	2	Ring	13
232.0316666666667	0	n/a	139220	KeyDown	41324	4	Index	13
232.3016666666667	0	n/a	139382	KeyDown	41324	4	Index	13
232.4500000000000	0	n/a	139471	KeyDown	41324	1	Little	13
232.5866666666667	0	n/a	139553	KeyDown	41324	3	Middle	13
232.7266666666667	0	n/a	139637	KeyDown	41324	2	Ring	13
232.8850000000000	0	n/a	139732	KeyDown	41324	4	Index	13
233.1850000000000	0	n/a	139912	KeyDown	41324	4	Index	13
233.3666666666667	0	n/a	140021	KeyDown	41324	1	Little	13
233.5116666666667	0	n/a	140108	KeyDown	41324	3	Middle	13
233.6850000000000	0	n/a	140212	KeyDown	41324	2	Ring	13
233.8333333333333	0	n/a	140301	KeyDown	41324	4	Index	13
234.1416666666667	0	n/a	140486	KeyDown	41324	4	Index	13
234.3016666666667	0	n/a	140582	KeyDown	41324	1	Little	13
234.4516666666667	0	n/a	140672	KeyDown	41324	3	Middle	13
234.6700000000000	0	n/a	140803	KeyDown	41324	2	Ring	13
235.2633333333333	0	n/a	141159	KeyDown	41324	2	Ring	13
235.4133333333334	0	n/a	141249	KeyDown	41324	4	Index	13
235.8833333333334	0	n/a	141531	KeyDown	41324	4	Index	13
236.0150000000000	0	n/a	141610	KeyDown	41324	1	Little	13
236.2083333333333	0	n/a	141726	KeyDown	41324	3	Middle	13
236.4466666666667	0	n/a	141869	KeyDown	41324	2	Ring	13
236.6300000000000	0	n/a	141979	KeyDown	41324	4	Index	13
236.9766666666667	0	n/a	142187	KeyDown	41324	4	Index	13
237.1200000000000	0	n/a	142273	KeyDown	41324	1	Little	13
237.3233333333334	0	n/a	142395	KeyDown	41324	3	Middle	13
237.5600000000000	0	n/a	142537	KeyDown	41324	2	Ring	13
237.7250000000000	0	n/a	142636	KeyDown	41324	4	Index	13
238.0650000000000	0	n/a	142840	KeyDown	41324	4	Index	13
238.2883333333334	0	n/a	142974	KeyDown	41324	1	Little	13
238.4750000000000	0	n/a	143086	KeyDown	41324	3	Middle	13
238.7200000000000	0	n/a	143233	KeyDown	41324	2	Ring	13
239.1466666666667	0	n/a	143489	KeyDown	41324	4	Index	13
239.5583333333333	0	n/a	143736	KeyDown	41324	4	Index	13
239.7266666666667	0	n/a	143837	KeyDown	41324	1	Little	13
239.9200000000000	0	n/a	143953	KeyDown	41324	3	Middle	13
240.1116666666667	0	n/a	144068	StopPractice	41324	n/a	n/a	13
240.1133333333333	0	n/a	144069	StartRest	XXXXX	n/a	n/a	13
250.1466666666667	0	n/a	150089	StopRest	XXXXX	n/a	n/a	13
250.1483333333333	0	UPPT001	150090	StartPractice	41324	n/a	n/a	14
250.6800000000000	0	n/a	150409	KeyDown	41324	4	Index	14
250.8333333333333	0	n/a	150501	KeyDown	41324	1	Little	14
251.0116666666667	0	n/a	150608	KeyDown	41324	3	Middle	14
251.1416666666667	0	n/a	150686	KeyDown	41324	2	Ring	14
251.3350000000000	0	n/a	150802	KeyDown	41324	4	Index	14
251.6333333333334	0	n/a	150981	KeyDown	41324	4	Index	14
251.7600000000000	0	n/a	151057	KeyDown	41324	1	Little	14
251.9300000000000	0	n/a	151159	KeyDown	41324	3	Middle	14
252.0600000000000	0	n/a	151237	KeyDown	41324	2	Ring	14
252.2850000000000	0	n/a	151372	KeyDown	41324	4	Index	14
252.5883333333333	0	n/a	151554	KeyDown	41324	4	Index	14
252.7416666666667	0	n/a	151646	KeyDown	41324	1	Little	14
252.9200000000000	0	n/a	151753	KeyDown	41324	3	Middle	14
253.0583333333333	0	n/a	151836	KeyDown	41324	2	Ring	14
253.2266666666667	0	n/a	151937	KeyDown	41324	4	Index	14
253.6150000000000	0	n/a	152170	KeyDown	41324	4	Index	14
253.7916666666667	0	n/a	152276	KeyDown	41324	1	Little	14
254.0000000000000	0	n/a	152401	KeyDown	41324	3	Middle	14
254.1566666666667	0	n/a	152495	KeyDown	41324	2	Ring	14
254.3500000000000	0	n/a	152611	KeyDown	41324	4	Index	14
254.6716666666667	0	n/a	152804	KeyDown	41324	4	Index	14
254.8316666666667	0	n/a	152900	KeyDown	41324	1	Little	14
255.0050000000000	0	n/a	153004	KeyDown	41324	3	Middle	14
255.2600000000000	0	n/a	153157	KeyDown	41324	2	Ring	14
255.4433333333334	0	n/a	153267	KeyDown	41324	4	Index	14
256.1450000000000	0	n/a	153688	KeyDown	41324	4	Index	14
256.3283333333334	0	n/a	153798	KeyDown	41324	1	Little	14
256.5100000000000	0	n/a	153907	KeyDown	41324	3	Middle	14
256.6533333333334	0	n/a	153993	KeyDown	41324	2	Ring	14
256.8700000000000	0	n/a	154123	KeyDown	41324	4	Index	14
257.1700000000000	0	n/a	154303	KeyDown	41324	4	Index	14
257.3200000000000	0	n/a	154393	KeyDown	41324	1	Little	14
257.4916666666667	0	n/a	154496	KeyDown	41324	3	Middle	14
257.6100000000000	0	n/a	154567	KeyDown	41324	2	Ring	14
257.8216666666667	0	n/a	154694	KeyDown	41324	4	Index	14
258.1416666666667	0	n/a	154886	KeyDown	41324	4	Index	14
258.3150000000000	0	n/a	154990	KeyDown	41324	1	Little	14
258.4883333333333	0	n/a	155094	KeyDown	41324	3	Middle	14
258.6800000000000	0	n/a	155209	KeyDown	41324	2	Ring	14
258.8200000000000	0	n/a	155293	KeyDown	41324	4	Index	14
259.1850000000000	0	n/a	155512	KeyDown	41324	4	Index	14
259.3500000000000	0	n/a	155611	KeyDown	41324	1	Little	14
259.5150000000000	0	n/a	155710	KeyDown	41324	3	Middle	14
259.6800000000000	0	n/a	155809	KeyDown	41324	2	Ring	14
259.8716666666667	0	n/a	155924	KeyDown	41324	4	Index	14
260.1866666666667	0	n/a	156113	StopPractice	41324	n/a	n/a	14
260.1883333333333	0	n/a	156114	StartRest	XXXXX	n/a	n/a	14
270.2216666666667	0	n/a	162134	StopRest	XXXXX	n/a	n/a	14
270.2233333333334	0	UPPT001	162135	StartPractice	41324	n/a	n/a	15
270.6300000000000	0	n/a	162379	KeyDown	41324	4	Index	15
270.7850000000000	0	n/a	162472	KeyDown	41324	1	Little	15
271.0016666666667	0	n/a	162602	KeyDown	41324	3	Middle	15
271.1116666666667	0	n/a	162668	KeyDown	41324	2	Ring	15
271.3283333333334	0	n/a	162798	KeyDown	41324	4	Index	15
271.6333333333333	0	n/a	162981	KeyDown	41324	4	Index	15
271.7800000000000	0	n/a	163069	KeyDown	41324	1	Little	15
271.9566666666667	0	n/a	163175	KeyDown	41324	3	Middle	15
272.1000000000000	0	n/a	163261	KeyDown	41324	2	Ring	15
272.3183333333333	0	n/a	163392	KeyDown	41324	4	Index	15
272.6000000000000	0	n/a	163561	KeyDown	41324	4	Index	15
272.7450000000000	0	n/a	163648	KeyDown	41324	1	Little	15
272.9100000000000	0	n/a	163747	KeyDown	41324	3	Middle	15
273.0750000000000	0	n/a	163846	KeyDown	41324	2	Ring	15
273.2850000000000	0	n/a	163972	KeyDown	41324	4	Index	15
273.5500000000000	0	n/a	164131	KeyDown	41324	4	Index	15
273.6800000000000	0	n/a	164209	KeyDown	41324	1	Little	15
273.8566666666667	0	n/a	164315	KeyDown	41324	3	Middle	15
274.0183333333334	0	n/a	164412	KeyDown	41324	2	Ring	15
274.2050000000000	0	n/a	164524	KeyDown	41324	4	Index	15
274.5400000000000	0	n/a	164725	KeyDown	41324	4	Index	15
274.6700000000000	0	n/a	164803	KeyDown	41324	1	Little	15
274.8533333333334	0	n/a	164913	KeyDown	41324	3	Middle	15
275.0166666666667	0	n/a	165011	KeyDown	41324	2	Ring	15
275.2283333333334	0	n/a	165138	KeyDown	41324	4	Index	15
275.5000000000000	0	n/a	165301	KeyDown	41324	4	Index	15
275.6600000000000	0	n/a	165397	KeyDown	41324	1	Little	15
275.8350000000000	0	n/a	165502	KeyDown	41324	3	Middle	15
275.9883333333333	0	n/a	165594	KeyDown	41324	2	Ring	15
276.1766666666667	0	n/a	165707	KeyDown	41324	4	Index	15
276.4616666666667	0	n/a	165878	KeyDown	41324	4	Index	15
276.6200000000000	0	n/a	165973	KeyDown	41324	1	Little	15
276.8050000000000	0	n/a	166084	KeyDown	41324	3	Middle	15
276.9466666666667	0	n/a	166169	KeyDown	41324	2	Ring	15
277.1350000000000	0	n/a	166282	KeyDown	41324	4	Index	15
277.4333333333333	0	n/a	166461	KeyDown	41324	4	Index	15
277.6000000000000	0	n/a	166561	KeyDown	41324	1	Little	15
277.7633333333334	0	n/a	166659	KeyDown	41324	3	Middle	15
277.9283333333333	0	n/a	166758	KeyDown	41324	2	Ring	15
278.0866666666667	0	n/a	166853	KeyDown	41324	4	Index	15
278.4050000000000	0	n/a	167044	KeyDown	41324	4	Index	15
278.5816666666667	0	n/a	167150	KeyDown	41324	1	Little	15
278.7466666666667	0	n/a	167249	KeyDown	41324	3	Middle	15
278.9416666666667	0	n/a	167366	KeyDown	41324	2	Ring	15
279.0916666666667	0	n/a	167456	KeyDown	41324	4	Index	15
279.4016666666667	0	n/a	167642	KeyDown	41324	4	Index	15
279.6450000000000	0	n/a	167788	KeyDown	41324	1	Little	15
279.8166666666667	0	n/a	167891	KeyDown	41324	3	Middle	15
280.0000000000000	0	n/a	168001	KeyDown	41324	2	Ring	15
280.1583333333334	0	n/a	168096	KeyDown	41324	4	Index	15
280.2616666666667	0	n/a	168158	StopPractice	41324	n/a	n/a	15
280.2633333333334	0	n/a	168159	StartRest	XXXXX	n/a	n/a	15
290.3133333333333	0	n/a	174189	StopRest	XXXXX	n/a	n/a	15
290.3150000000000	0	UPPT001	174190	StartPractice	41324	n/a	n/a	16
290.8366666666667	0	n/a	174503	KeyDown	41324	4	Index	16
291.0633333333333	0	n/a	174639	KeyDown	41324	1	Little	16
291.2283333333334	0	n/a	174738	KeyDown	41324	3	Middle	16
291.3833333333333	0	n/a	174831	KeyDown	41324	2	Ring	16
291.5566666666667	0	n/a	174935	KeyDown	41324	4	Index	16
291.8483333333334	0	n/a	175110	KeyDown	41324	4	Index	16
292.0183333333334	0	n/a	175212	KeyDown	41324	1	Little	16
292.1800000000000	0	n/a	175309	KeyDown	41324	3	Middle	16
292.3383333333334	0	n/a	175404	KeyDown	41324	2	Ring	16
292.5416666666667	0	n/a	175526	KeyDown	41324	4	Index	16
292.8416666666667	0	n/a	175706	KeyDown	41324	4	Index	16
293.0050000000000	0	n/a	175804	KeyDown	41324	1	Little	16
293.1766666666667	0	n/a	175907	KeyDown	41324	3	Middle	16
293.3366666666667	0	n/a	176003	KeyDown	41324	2	Ring	16
293.5266666666667	0	n/a	176117	KeyDown	41324	4	Index	16
293.8033333333333	0	n/a	176283	KeyDown	41324	4	Index	16
293.9500000000000	0	n/a	176371	KeyDown	41324	1	Little	16
294.1266666666667	0	n/a	176477	KeyDown	41324	3	Middle	16
294.2916666666667	0	n/a	176576	KeyDown	41324	2	Ring	16
294.5066666666667	0	n/a	176705	KeyDown	41324	4	Index	16
294.8133333333333	0	n/a	176889	KeyDown	41324	4	Index	16
294.9650000000000	0	n/a	176980	KeyDown	41324	1	Little	16
295.1366666666667	0	n/a	177083	KeyDown	41324	3	Middle	16
295.2866666666667	0	n/a	177173	KeyDown	41324	2	Ring	16
295.4883333333333	0	n/a	177294	KeyDown	41324	4	Index	16
295.8033333333333	0	n/a	177483	KeyDown	41324	4	Index	16
295.9683333333334	0	n/a	177582	KeyDown	41324	1	Little	16
296.1566666666667	0	n/a	177695	KeyDown	41324	3	Middle	16
296.3133333333333	0	n/a	177789	KeyDown	41324	2	Ring	16
296.4950000000000	0	n/a	177898	KeyDown	41324	4	Index	16
296.7783333333334	0	n/a	178068	KeyDown	41324	4	Index	16
296.9266666666667	0	n/a	178157	KeyDown	41324	1	Little	16
297.1316666666667	0	n/a	178280	KeyDown	41324	2	Ring	16
297.6116666666667	0	n/a	178568	KeyDown	41324	3	Middle	16
297.8333333333334	0	n/a	178701	KeyDown	41324	2	Ring	16
298.4933333333333	0	n/a	179097	KeyDown	41324	4	Index	16
298.6466666666667	0	n/a	179189	KeyDown	41324	1	Little	16
298.8183333333333	0	n/a	179292	KeyDown	41324	3	Middle	16
298.9716666666667	0	n/a	179384	KeyDown	41324	2	Ring	16
299.1783333333333	0	n/a	179508	KeyDown	41324	4	Index	16
299.4966666666667	0	n/a	179699	KeyDown	41324	4	Index	16
299.6450000000000	0	n/a	179788	KeyDown	41324	1	Little	16
299.8166666666667	0	n/a	179891	KeyDown	41324	3	Middle	16
300.0450000000000	0	n/a	180028	KeyDown	41324	2	Ring	16
300.2133333333334	0	n/a	180129	KeyDown	41324	4	Index	16
300.3533333333334	0	n/a	180213	StopPractice	41324	n/a	n/a	16
300.3550000000000	0	n/a	180214	StartRest	XXXXX	n/a	n/a	16
310.3883333333334	0	n/a	186234	StopRest	XXXXX	n/a	n/a	16
310.3900000000000	0	UPPT001	186235	StartPractice	41324	n/a	n/a	17
310.9516666666667	0	n/a	186572	KeyDown	41324	4	Index	17
311.1483333333334	0	n/a	186690	KeyDown	41324	1	Little	17
311.3166666666667	0	n/a	186791	KeyDown	41324	3	Middle	17
311.4816666666667	0	n/a	186890	KeyDown	41324	2	Ring	17
311.6533333333334	0	n/a	186993	KeyDown	41324	4	Index	17
311.9733333333334	0	n/a	187185	KeyDown	41324	4	Index	17
312.1233333333333	0	n/a	187275	KeyDown	41324	1	Little	17
312.2983333333333	0	n/a	187380	KeyDown	41324	3	Middle	17
312.4550000000000	0	n/a	187474	KeyDown	41324	2	Ring	17
312.6750000000000	0	n/a	187606	KeyDown	41324	4	Index	17
312.9766666666667	0	n/a	187787	KeyDown	41324	4	Index	17
313.1366666666667	0	n/a	187883	KeyDown	41324	1	Little	17
313.3033333333333	0	n/a	187983	KeyDown	41324	3	Middle	17
313.4516666666667	0	n/a	188072	KeyDown	41324	2	Ring	17
313.6383333333334	0	n/a	188184	KeyDown	41324	4	Index	17
313.9250000000000	0	n/a	188356	KeyDown	41324	4	Index	17
314.0583333333333	0	n/a	188436	KeyDown	41324	1	Little	17
314.2333333333333	0	n/a	188541	KeyDown	41324	3	Middle	17
314.3916666666667	0	n/a	188636	KeyDown	41324	2	Ring	17
314.5933333333334	0	n/a	188757	KeyDown	41324	4	Index	17
314.9000000000000	0	n/a	188941	KeyDown	41324	4	Index	17
315.0750000000000	0	n/a	189046	KeyDown	41324	1	Little	17
315.2183333333334	0	n/a	189132	KeyDown	41324	3	Middle	17
315.3866666666667	0	n/a	189233	KeyDown	41324	2	Ring	17
315.5500000000000	0	n/a	189331	KeyDown	41324	4	Index	17
315.8883333333334	0	n/a	189534	KeyDown	41324	4	Index	17
316.0583333333333	0	n/a	189636	KeyDown	41324	1	Little	17
316.2100000000000	0	n/a	189727	KeyDown	41324	3	Middle	17
316.3866666666667	0	n/a	189833	KeyDown	41324	2	Ring	17
316.5600000000000	0	n/a	189937	KeyDown	41324	4	Index	17
316.8633333333333	0	n/a	190119	KeyDown	41324	4	Index	17
317.0333333333334	0	n/a	190221	KeyDown	41324	1	Little	17
317.1933333333333	0	n/a	190317	KeyDown	41324	3	Middle	17
317.3550000000000	0	n/a	190414	KeyDown	41324	2	Ring	17
317.5266666666667	0	n/a	190517	KeyDown	41324	4	Index	17
317.8433333333334	0	n/a	190707	KeyDown	41324	4	Index	17
318.0250000000000	0	n/a	190816	KeyDown	41324	1	Little	17
318.1733333333333	0	n/a	190905	KeyDown	41324	3	Middle	17
318.3600000000000	0	n/a	191017	KeyDown	41324	2	Ring	17
318.5216666666667	0	n/a	191114	KeyDown	41324	4	Index	17
318.8450000000000	0	n/a	191308	KeyDown	41324	4	Index	17
319.0300000000000	0	n/a	191419	KeyDown	41324	1	Little	17
319.1900000000000	0	n/a	191515	KeyDown	41324	3	Middle	17
319.3983333333334	0	n/a	191640	KeyDown	41324	2	Ring	17
319.5583333333333	0	n/a	191736	KeyDown	41324	4	Index	17
319.9483333333334	0	n/a	191970	KeyDown	41324	4	Index	17
320.4283333333333	0	n/a	192258	StopPractice	41324	n/a	n/a	17
320.4300000000000	0	n/a	192259	StartRest	XXXXX	n/a	n/a	17
330.4633333333334	0	n/a	198279	StopRest	XXXXX	n/a	n/a	17
330.4650000000000	0	UPPT001	198280	StartPractice	41324	n/a	n/a	18
330.8200000000000	0	n/a	198493	KeyDown	41324	4	Index	18
330.9883333333333	0	n/a	198594	KeyDown	41324	1	Little	18
331.1450000000000	0	n/a	198688	KeyDown	41324	3	Middle	18
331.2866666666667	0	n/a	198773	KeyDown	41324	2	Ring	18
331.4633333333334	0	n/a	198879	KeyDown	41324	4	Index	18
331.7516666666667	0	n/a	199052	KeyDown	41324	4	Index	18
331.9183333333334	0	n/a	199152	KeyDown	41324	1	Little	18
332.0766666666667	0	n/a	199247	KeyDown	41324	3	Middle	18
332.2316666666667	0	n/a	199340	KeyDown	41324	2	Ring	18
332.4083333333334	0	n/a	199446	KeyDown	41324	4	Index	18
332.7066666666667	0	n/a	199625	KeyDown	41324	4	Index	18
332.8583333333333	0	n/a	199716	KeyDown	41324	1	Little	18
333.0166666666667	0	n/a	199811	KeyDown	41324	3	Middle	18
333.1583333333334	0	n/a	199896	KeyDown	41324	2	Ring	18
333.3566666666667	0	n/a	200015	KeyDown	41324	4	Index	18
333.6500000000000	0	n/a	200191	KeyDown	41324	4	Index	18
333.7900000000000	0	n/a	200275	KeyDown	41324	1	Little	18
333.9466666666667	0	n/a	200369	KeyDown	41324	3	Middle	18
334.1033333333334	0	n/a	200463	KeyDown	41324	2	Ring	18
334.3016666666667	0	n/a	200582	KeyDown	41324	4	Index	18
334.8833333333334	0	n/a	200931	KeyDown	41324	4	Index	18
335.0166666666667	0	n/a	201011	KeyDown	41324	1	Little	18
335.2066666666667	0	n/a	201125	KeyDown	41324	3	Middle	18
335.3633333333333	0	n/a	201219	KeyDown	41324	2	Ring	18
335.5366666666667	0	n/a	201323	KeyDown	41324	4	Index	18
335.8516666666667	0	n/a	201512	KeyDown	41324	4	Index	18
335.9866666666667	0	n/a	201593	KeyDown	41324	1	Little	18
336.1433333333334	0	n/a	201687	KeyDown	41324	3	Middle	18
336.3083333333333	0	n/a	201786	KeyDown	41324	2	Ring	18
336.4816666666667	0	n/a	201890	KeyDown	41324	4	Index	18
336.8000000000000	0	n/a	202081	KeyDown	41324	4	Index	18
336.9466666666667	0	n/a	202169	KeyDown	41324	1	Little	18
337.1133333333333	0	n/a	202269	KeyDown	41324	3	Middle	18
337.2666666666667	0	n/a	202361	KeyDown	41324	2	Ring	18
337.4466666666667	0	n/a	202469	KeyDown	41324	4	Index	18
337.7733333333334	0	n/a	202665	KeyDown	41324	4	Index	18
337.9283333333333	0	n/a	202758	KeyDown	41324	1	Little	18
338.1066666666667	0	n/a	202865	KeyDown	41324	3	Middle	18
338.2683333333334	0	n/a	202962	KeyDown	41324	2	Ring	18
338.4383333333333	0	n/a	203064	KeyDown	41324	4	Index	18
338.7683333333334	0	n/a	203262	KeyDown	41324	4	Index	18
338.9216666666667	0	n/a	203354	KeyDown	41324	1	Little	18
339.0783333333334	0	n/a	203448	KeyDown	41324	3	Middle	18
339.2383333333333	0	n/a	203544	KeyDown	41324	2	Ring	18
339.4366666666667	0	n/a	203663	KeyDown	41324	4	Index	18
339.7866666666667	0	n/a	203873	KeyDown	41324	4	Index	18
339.9833333333333	0	n/a	203991	KeyDown	41324	1	Little	18
340.1266666666667	0	n/a	204077	KeyDown	41324	3	Middle	18
340.5033333333333	0	n/a	204303	StopPractice	41324	n/a	n/a	18
340.5050000000000	0	n/a	204304	StartRest	XXXXX	n/a	n/a	18
350.5383333333334	0	n/a	210324	StopRest	XXXXX	n/a	n/a	18
350.5400000000000	0	UPPT001	210325	StartPractice	41324	n/a	n/a	19
351.2116666666667	0	n/a	210728	KeyDown	41324	4	Index	19
351.3616666666667	0	n/a	210818	KeyDown	41324	1	Little	19
351.5183333333334	0	n/a	210912	KeyDown	41324	3	Middle	19
351.6583333333334	0	n/a	210996	KeyDown	41324	2	Ring	19
351.8483333333334	0	n/a	211110	KeyDown	41324	4	Index	19
352.1433333333334	0	n/a	211287	KeyDown	41324	4	Index	19
352.3233333333334	0	n/a	211395	KeyDown	41324	1	Little	19
352.4283333333333	0	n/a	211458	KeyDown	41324	3	Middle	19
353.1233333333333	0	n/a	211875	KeyDown	41324	2	Ring	19
353.2616666666667	0	n/a	211958	KeyDown	41324	4	Index	19
353.5833333333334	0	n/a	212151	KeyDown	41324	4	Index	19
353.8433333333334	0	n/a	212307	KeyDown	41324	1	Little	19
353.9933333333333	0	n/a	212397	KeyDown	41324	3	Middle	19
354.1616666666667	0	n/a	212498	KeyDown	41324	2	Ring	19
354.3516666666667	0	n/a	212612	KeyDown	41324	4	Index	19
354.6450000000000	0	n/a	212788	KeyDown	41324	4	Index	19
354.9833333333333	0	n/a	212991	KeyDown	41324	1	Little	19
355.1833333333333	0	n/a	213111	KeyDown	41324	3	Middle	19
355.3450000000000	0	n/a	213208	KeyDown	41324	2	Ring	19
355.5233333333334	0	n/a	213315	KeyDown	41324	4	Index	19
355.8100000000000	0	n/a	213487	KeyDown	41324	4	Index	19
355.9933333333333	0	n/a	213597	KeyDown	41324	1	Little	19
356.1716666666667	0	n/a	213704	KeyDown	41324	3	Middle	19
356.4133333333334	0	n/a	213849	KeyDown	41324	2	Ring	19
356.5933333333334	0	n/a	213957	KeyDown	41324	4	Index	19
356.9650000000000	0	n/a	214180	KeyDown	41324	4	Index	19
357.1383333333334	0	n/a	214284	KeyDown	41324	1	Little	19
357.2966666666667	0	n/a	214379	KeyDown	41324	3	Middle	19
357.5350000000000	0	n/a	214522	KeyDown	41324	2	Ring	19
357.6716666666667	0	n/a	214604	KeyDown	41324	4	Index	19
358.0316666666667	0	n/a	214820	KeyDown	41324	4	Index	19
358.1966666666667	0	n/a	214919	KeyDown	41324	1	Little	19
358.3483333333334	0	n/a	215010	KeyDown	41324	3	Middle	19
358.5316666666667	0	n/a	215120	KeyDown	41324	2	Ring	19
358.6983333333334	0	n/a	215220	KeyDown	41324	3	Middle	19
360.0733333333334	0	n/a	216045	KeyDown	41324	4	Index	19
360.2550000000000	0	n/a	216154	KeyDown	41324	1	Little	19
360.4516666666667	0	n/a	216272	KeyDown	41324	3	Middle	19
360.5783333333334	0	n/a	216348	StopPractice	41324	n/a	n/a	19
360.5800000000000	0	n/a	216349	StartRest	XXXXX	n/a	n/a	19
370.6116666666667	0	n/a	222368	StopRest	XXXXX	n/a	n/a	19
370.6133333333333	0	UPPT001	222369	StartPractice	41324	n/a	n/a	20
370.9100000000000	0	n/a	222547	KeyDown	41324	4	Index	20
371.0566666666667	0	n/a	222635	KeyDown	41324	1	Little	20
371.2466666666667	0	n/a	222749	KeyDown	41324	3	Middle	20
371.3766666666667	0	n/a	222827	KeyDown	41324	2	Ring	20
371.5900000000000	0	n/a	222955	KeyDown	41324	4	Index	20
371.9000000000000	0	n/a	223141	KeyDown	41324	4	Index	20
372.0350000000000	0	n/a	223222	KeyDown	41324	1	Little	20
372.2016666666667	0	n/a	223322	KeyDown	41324	3	Middle	20
372.3450000000000	0	n/a	223408	KeyDown	41324	2	Ring	20
372.5466666666667	0	n/a	223529	KeyDown	41324	4	Index	20
373.0516666666667	0	n/a	223832	KeyDown	41324	4	Index	20
373.1950000000001	0	n/a	223918	KeyDown	41324	1	Little	20
373.3750000000000	0	n/a	224026	KeyDown	41324	3	Middle	20
373.5533333333333	0	n/a	224133	KeyDown	41324	2	Ring	20
373.7000000000000	0	n/a	224221	KeyDown	41324	4	Index	20
374.1050000000000	0	n/a	224464	KeyDown	41324	4	Index	20
374.2516666666667	0	n/a	224552	KeyDown	41324	1	Little	20
374.4316666666667	0	n/a	224660	KeyDown	41324	3	Middle	20
374.5900000000000	0	n/a	224755	KeyDown	41324	2	Ring	20
374.7816666666667	0	n/a	224870	KeyDown	41324	4	Index	20
375.1200000000000	0	n/a	225073	KeyDown	41324	4	Index	20
375.2566666666667	0	n/a	225155	KeyDown	41324	1	Little	20
375.4300000000000	0	n/a	225259	KeyDown	41324	3	Middle	20
375.5466666666667	0	n/a	225329	KeyDown	41324	2	Ring	20
375.7566666666667	0	n/a	225455	KeyDown	41324	4	Index	20
376.1200000000000	0	n/a	225673	KeyDown	41324	4	Index	20
376.4900000000000	0	n/a	225895	KeyDown	41324	1	Little	20
376.6783333333333	0	n/a	226008	KeyDown	41324	3	Middle	20
376.9250000000000	0	n/a	226156	KeyDown	41324	2	Ring	20
377.0950000000000	0	n/a	226258	KeyDown	41324	4	Index	20
377.5083333333334	0	n/a	226506	KeyDown	41324	4	Index	20
377.7100000000000	0	n/a	226627	KeyDown	41324	1	Little	20
377.9100000000000	0	n/a	226747	KeyDown	41324	3	Middle	20
378.1250000000000	0	n/a	226876	KeyDown	41324	2	Ring	20
378.3366666666667	0	n/a	227003	KeyDown	41324	4	Index	20
378.8566666666667	0	n/a	227315	KeyDown	41324	4	Index	20
379.0150000000000	0	n/a	227410	KeyDown	41324	1	Little	20
379.2950000000000	0	n/a	227578	KeyDown	41324	3	Middle	20
379.4550000000000	0	n/a	227674	KeyDown	41324	2	Ring	20
379.6750000000000	0	n/a	227806	KeyDown	41324	4	Index	20
380.0416666666667	0	n/a	228026	KeyDown	41324	4	Index	20
380.1666666666667	0	n/a	228101	KeyDown	41324	1	Little	20
380.3250000000000	0	n/a	228196	KeyDown	41324	3	Middle	20
380.6516666666667	0	n/a	228392	StopPractice	41324	n/a	n/a	20
380.6533333333334	0	n/a	228393	StartRest	XXXXX	n/a	n/a	20
390.6866666666667	0	n/a	234413	StopRest	XXXXX	n/a	n/a	20
390.6883333333333	0	UPPT001	234414	StartPractice	41324	n/a	n/a	21
390.7933333333334	0	n/a	234477	KeyDown	41324	3	Middle	21
391.6400000000000	0	n/a	234985	KeyDown	41324	4	Index	21
391.7516666666667	0	n/a	235052	KeyDown	41324	1	Little	21
391.9133333333334	0	n/a	235149	KeyDown	41324	3	Middle	21
392.0600000000000	0	n/a	235237	KeyDown	41324	2	Ring	21
392.2500000000000	0	n/a	235351	KeyDown	41324	4	Index	21
392.5466666666667	0	n/a	235529	KeyDown	41324	4	Index	21
392.7050000000000	0	n/a	235624	KeyDown	41324	1	Little	21
392.8483333333334	0	n/a	235710	KeyDown	41324	3	Middle	21
392.9883333333333	0	n/a	235794	KeyDown	41324	2	Ring	21
393.1566666666667	0	n/a	235895	KeyDown	41324	4	Index	21
393.4683333333334	0	n/a	236082	KeyDown	41324	4	Index	21
393.6050000000000	0	n/a	236164	KeyDown	41324	1	Little	21
393.7600000000000	0	n/a	236257	KeyDown	41324	3	Middle	21
393.8950000000000	0	n/a	236338	KeyDown	41324	2	Ring	21
394.0400000000000	0	n/a	236425	KeyDown	41324	4	Index	21
394.3500000000000	0	n/a	236611	KeyDown	41324	4	Index	21
394.4750000000000	0	n/a	236686	KeyDown	41324	1	Little	21
394.6333333333334	0	n/a	236781	KeyDown	41324	3	Middle	21
394.7600000000000	0	n/a	236857	KeyDown	41324	2	Ring	21
394.9116666666667	0	n/a	236948	KeyDown	41324	4	Index	21
395.2366666666667	0	n/a	237143	KeyDown	41324	4	Index	21
395.3800000000001	0	n/a	237229	KeyDown	41324	1	Little	21
395.5166666666667	0	n/a	237311	KeyDown	41324	3	Middle	21
395.7200000000000	0	n/a	237433	KeyDown	41324	4	Index	21
395.8150000000000	0	n/a	237490	KeyDown	41324	2	Ring	21
396.6733333333333	0	n/a	238005	KeyDown	41324	4	Index	21
396.8100000000000	0	n/a	238087	KeyDown	41324	1	Little	21
396.9900000000000	0	n/a	238195	KeyDown	41324	3	Middle	21
397.2166666666667	0	n/a	238331	KeyDown	41324	2	Ring	21
397.3800000000001	0	n/a	238429	KeyDown	41324	4	Index	21
397.6950000000001	0	n/a	238618	KeyDown	41324	4	Index	21
397.8900000000000	0	n/a	238735	KeyDown	41324	1	Little	21
398.0350000000000	0	n/a	238822	KeyDown	41324	3	Middle	21
398.2316666666667	0	n/a	238940	KeyDown	41324	2	Ring	21
398.3783333333334	0	n/a	239028	KeyDown	41324	4	Index	21
398.7050000000000	0	n/a	239224	KeyDown	41324	4	Index	21
398.8916666666667	0	n/a	239336	KeyDown	41324	1	Little	21
399.0300000000000	0	n/a	239419	KeyDown	41324	3	Middle	21
399.2450000000000	0	n/a	239548	KeyDown	41324	4	Index	21
399.3666666666667	0	n/a	239621	KeyDown	41324	2	Ring	21
400.0166666666667	0	n/a	240011	KeyDown	41324	4	Index	21
400.2283333333334	0	n/a	240138	KeyDown	41324	1	Little	21
400.7266666666667	0	n/a	240437	StopPractice	41324	n/a	n/a	21
400.7283333333334	0	n/a	240438	StartRest	XXXXX	n/a	n/a	21
410.7616666666667	0	n/a	246458	StopRest	XXXXX	n/a	n/a	21
410.7633333333334	0	UPPT001	246459	StartPractice	41324	n/a	n/a	22
411.1716666666667	0	n/a	246704	KeyDown	41324	4	Index	22
411.3500000000000	0	n/a	246811	KeyDown	41324	1	Little	22
411.5100000000000	0	n/a	246907	KeyDown	41324	3	Middle	22
411.6400000000000	0	n/a	246985	KeyDown	41324	2	Ring	22
411.8366666666667	0	n/a	247103	KeyDown	41324	4	Index	22
412.1600000000000	0	n/a	247297	KeyDown	41324	4	Index	22
412.3016666666667	0	n/a	247382	KeyDown	41324	1	Little	22
412.4350000000000	0	n/a	247462	KeyDown	41324	3	Middle	22
412.6100000000000	0	n/a	247567	KeyDown	41324	2	Ring	22
412.8033333333333	0	n/a	247683	KeyDown	41324	4	Index	22
413.1116666666667	0	n/a	247868	KeyDown	41324	4	Index	22
413.2516666666667	0	n/a	247952	KeyDown	41324	1	Little	22
413.4116666666667	0	n/a	248048	KeyDown	41324	3	Middle	22
413.5466666666667	0	n/a	248129	KeyDown	41324	2	Ring	22
413.7300000000000	0	n/a	248239	KeyDown	41324	4	Index	22
414.0666666666667	0	n/a	248441	KeyDown	41324	4	Index	22
414.2016666666667	0	n/a	248522	KeyDown	41324	1	Little	22
414.3600000000000	0	n/a	248617	KeyDown	41324	3	Middle	22
414.5066666666667	0	n/a	248705	KeyDown	41324	2	Ring	22
414.6700000000000	0	n/a	248803	KeyDown	41324	4	Index	22
415.0366666666667	0	n/a	249023	KeyDown	41324	4	Index	22
415.1750000000000	0	n/a	249106	KeyDown	41324	1	Little	22
415.3316666666667	0	n/a	249200	KeyDown	41324	3	Middle	22
415.4950000000000	0	n/a	249298	KeyDown	41324	2	Ring	22
415.6766666666667	0	n/a	249407	KeyDown	41324	4	Index	22
415.9916666666667	0	n/a	249596	KeyDown	41324	4	Index	22
416.1316666666667	0	n/a	249680	KeyDown	41324	1	Little	22
416.2683333333334	0	n/a	249762	KeyDown	41324	3	Middle	22
416.4300000000000	0	n/a	249859	KeyDown	41324	2	Ring	22
416.5966666666667	0	n/a	249959	KeyDown	41324	4	Index	22
416.9700000000000	0	n/a	250183	KeyDown	41324	4	Index	22
417.1166666666667	0	n/a	250271	KeyDown	41324	1	Little	22
417.3166666666667	0	n/a	250391	KeyDown	41324	3	Middle	22
417.4566666666667	0	n/a	250475	KeyDown	41324	2	Ring	22
417.6300000000001	0	n/a	250579	KeyDown	41324	4	Index	22
417.9716666666667	0	n/a	250784	KeyDown	41324	4	Index	22
418.1750000000000	0	n/a	250906	KeyDown	41324	1	Little	22
418.3516666666667	0	n/a	251012	KeyDown	41324	3	Middle	22
418.5550000000000	0	n/a	251134	KeyDown	41324	2	Ring	22
418.7316666666667	0	n/a	251240	KeyDown	41324	4	Index	22
419.0550000000000	0	n/a	251434	KeyDown	41324	4	Index	22
419.2833333333334	0	n/a	251571	KeyDown	41324	3	Middle	22
419.3650000000000	0	n/a	251620	KeyDown	41324	1	Little	22
420.0466666666667	0	n/a	252029	KeyDown	41324	4	Index	22
420.1783333333333	0	n/a	252108	KeyDown	41324	1	Little	22
420.4150000000000	0	n/a	252250	KeyDown	41324	3	Middle	22
420.6566666666667	0	n/a	252395	KeyDown	41324	2	Ring	22
420.7666666666667	0	n/a	252461	KeyDown	41324	4	Index	22
420.8016666666667	0	n/a	252482	StopPractice	41324	n/a	n/a	22
420.8033333333333	0	n/a	252483	StartRest	XXXXX	n/a	n/a	22
430.8366666666667	0	n/a	258503	StopRest	XXXXX	n/a	n/a	22
430.8383333333334	0	UPPT001	258504	StartPractice	41324	n/a	n/a	23
431.3050000000000	0	n/a	258784	KeyDown	41324	4	Index	23
431.4650000000000	0	n/a	258880	KeyDown	41324	1	Little	23
431.6700000000000	0	n/a	259003	KeyDown	41324	3	Middle	23
431.8166666666667	0	n/a	259091	KeyDown	41324	2	Ring	23
432.0483333333333	0	n/a	259230	KeyDown	41324	4	Index	23
432.3616666666667	0	n/a	259418	KeyDown	41324	4	Index	23
432.5400000000000	0	n/a	259525	KeyDown	41324	1	Little	23
432.7200000000000	0	n/a	259633	KeyDown	41324	3	Middle	23
432.8700000000000	0	n/a	259723	KeyDown	41324	2	Ring	23
433.0950000000000	0	n/a	259858	KeyDown	41324	4	Index	23
433.4116666666667	0	n/a	260048	KeyDown	41324	4	Index	23
433.5783333333334	0	n/a	260148	KeyDown	41324	1	Little	23
433.7783333333334	0	n/a	260268	KeyDown	41324	3	Middle	23
433.9200000000000	0	n/a	260353	KeyDown	41324	2	Ring	23
434.1316666666667	0	n/a	260480	KeyDown	41324	4	Index	23
434.4500000000000	0	n/a	260671	KeyDown	41324	4	Index	23
434.5816666666667	0	n/a	260750	KeyDown	41324	1	Little	23
434.7866666666667	0	n/a	260873	KeyDown	41324	3	Middle	23
434.9450000000001	0	n/a	260968	KeyDown	41324	2	Ring	23
435.1483333333334	0	n/a	261090	KeyDown	41324	4	Index	23
435.4550000000000	0	n/a	261274	KeyDown	41324	4	Index	23
435.6116666666667	0	n/a	261368	KeyDown	41324	1	Little	23
435.8100000000000	0	n/a	261487	KeyDown	41324	3	Middle	23
435.9783333333334	0	n/a	261588	KeyDown	41324	2	Ring	23
436.1400000000000	0	n/a	261685	KeyDown	41324	4	Index	23
437.1383333333334	0	n/a	262284	KeyDown	41324	4	Index	23
437.2650000000000	0	n/a	262360	KeyDown	41324	1	Little	23
437.4783333333334	0	n/a	262488	KeyDown	41324	3	Middle	23
437.6366666666667	0	n/a	262583	KeyDown	41324	2	Ring	23
437.8450000000000	0	n/a	262708	KeyDown	41324	4	Index	23
438.4100000000000	0	n/a	263047	KeyDown	41324	4	Index	23
438.5950000000000	0	n/a	263158	KeyDown	41324	1	Little	23
438.7866666666667	0	n/a	263273	KeyDown	41324	3	Middle	23
439.0950000000000	0	n/a	263458	KeyDown	41324	2	Ring	23
439.2616666666667	0	n/a	263558	KeyDown	41324	4	Index	23
439.6216666666667	0	n/a	263774	KeyDown	41324	4	Index	23
439.7950000000000	0	n/a	263878	KeyDown	41324	1	Little	23
439.9950000000000	0	n/a	263998	KeyDown	41324	3	Middle	23
440.1350000000000	0	n/a	264082	KeyDown	41324	2	Ring	23
440.3800000000001	0	n/a	264229	KeyDown	41324	4	Index	23
440.7450000000000	0	n/a	264448	KeyDown	41324	4	Index	23
440.8766666666667	0	n/a	264527	StopPractice	41324	n/a	n/a	23
440.8783333333334	0	n/a	264528	StartRest	XXXXX	n/a	n/a	23
450.9116666666667	0	n/a	270548	StopRest	XXXXX	n/a	n/a	23
450.9133333333334	0	UPPT001	270549	StartPractice	41324	n/a	n/a	24
451.6533333333334	0	n/a	270993	KeyDown	41324	4	Index	24
451.7816666666667	0	n/a	271070	KeyDown	41324	1	Little	24
451.9750000000000	0	n/a	271186	KeyDown	41324	3	Middle	24
452.1200000000000	0	n/a	271273	KeyDown	41324	2	Ring	24
452.3066666666667	0	n/a	271385	KeyDown	41324	4	Index	24
452.6166666666667	0	n/a	271571	KeyDown	41324	4	Index	24
452.7550000000001	0	n/a	271654	KeyDown	41324	1	Little	24
452.9366666666667	0	n/a	271763	KeyDown	41324	3	Middle	24
453.0816666666667	0	n/a	271850	KeyDown	41324	2	Ring	24
453.2783333333334	0	n/a	271968	KeyDown	41324	4	Index	24
453.6066666666667	0	n/a	272165	KeyDown	41324	4	Index	24
453.7416666666667	0	n/a	272246	KeyDown	41324	1	Little	24
453.9183333333334	0	n/a	272352	KeyDown	41324	3	Middle	24
454.0750000000000	0	n/a	272446	KeyDown	41324	2	Ring	24
454.2700000000000	0	n/a	272563	KeyDown	41324	4	Index	24
454.5950000000000	0	n/a	272758	KeyDown	41324	4	Index	24
454.7466666666667	0	n/a	272849	KeyDown	41324	1	Little	24
454.9200000000000	0	n/a	272953	KeyDown	41324	3	Middle	24
455.1816666666667	0	n/a	273110	KeyDown	41324	2	Ring	24
455.3450000000000	0	n/a	273208	KeyDown	41324	4	Index	24
455.7433333333333	0	n/a	273447	KeyDown	41324	4	Index	24
455.8950000000000	0	n/a	273538	KeyDown	41324	1	Little	24
456.1566666666667	0	n/a	273695	KeyDown	41324	3	Middle	24
456.2766666666667	0	n/a	273767	KeyDown	41324	2	Ring	24
456.4800000000000	0	n/a	273889	KeyDown	41324	4	Index	24
456.8183333333334	0	n/a	274092	KeyDown	41324	4	Index	24
457.0066666666667	0	n/a	274205	KeyDown	41324	1	Little	24
457.1766666666667	0	n/a	274307	KeyDown	41324	3	Middle	24
457.7216666666667	0	n/a	274634	KeyDown	41324	2	Ring	24
457.8750000000001	0	n/a	274726	KeyDown	41324	4	Index	24
458.6283333333334	0	n/a	275178	KeyDown	41324	4	Index	24
458.8400000000000	0	n/a	275305	KeyDown	41324	1	Little	24
458.9866666666667	0	n/a	275393	KeyDown	41324	3	Middle	24
459.2183333333334	0	n/a	275532	KeyDown	41324	2	Ring	24
459.3416666666667	0	n/a	275606	KeyDown	41324	4	Index	24
459.7600000000000	0	n/a	275857	KeyDown	41324	4	Index	24
459.9683333333334	0	n/a	275982	KeyDown	41324	1	Little	24
460.1300000000001	0	n/a	276079	KeyDown	41324	3	Middle	24
460.5716666666667	0	n/a	276344	KeyDown	41324	2	Ring	24
460.7016666666667	0	n/a	276422	KeyDown	41324	4	Index	24
460.9516666666667	0	n/a	276572	StopPractice	41324	n/a	n/a	24
460.9533333333334	0	n/a	276573	StartRest	XXXXX	n/a	n/a	24
470.9866666666667	0	n/a	282593	StopRest	XXXXX	n/a	n/a	24
470.9883333333333	0	UPPT001	282594	StartPractice	41324	n/a	n/a	25
472.1716666666667	0	n/a	283304	KeyDown	41324	4	Index	25
472.3183333333334	0	n/a	283392	KeyDown	41324	1	Little	25
472.5016666666667	0	n/a	283502	KeyDown	41324	3	Middle	25
472.7433333333333	0	n/a	283647	KeyDown	41324	2	Ring	25
472.8583333333333	0	n/a	283716	KeyDown	41324	4	Index	25
473.2866666666667	0	n/a	283973	KeyDown	41324	4	Index	25
473.4150000000000	0	n/a	284050	KeyDown	41324	1	Little	25
473.6116666666667	0	n/a	284168	KeyDown	41324	3	Middle	25
473.8533333333334	0	n/a	284313	KeyDown	41324	2	Ring	25
473.9600000000000	0	n/a	284377	KeyDown	41324	4	Index	25
474.3150000000001	0	n/a	284590	KeyDown	41324	4	Index	25
474.4650000000000	0	n/a	284680	KeyDown	41324	1	Little	25
474.6500000000000	0	n/a	284791	KeyDown	41324	3	Middle	25
474.8700000000000	0	n/a	284923	KeyDown	41324	2	Ring	25
474.9800000000000	0	n/a	284989	KeyDown	41324	4	Index	25
475.3066666666667	0	n/a	285185	KeyDown	41324	4	Index	25
475.4616666666667	0	n/a	285278	KeyDown	41324	1	Little	25
475.6150000000000	0	n/a	285370	KeyDown	41324	3	Middle	25
475.8900000000000	0	n/a	285535	KeyDown	41324	2	Ring	25
475.9816666666667	0	n/a	285590	KeyDown	41324	4	Index	25
476.3100000000000	0	n/a	285787	KeyDown	41324	4	Index	25
476.8883333333334	0	n/a	286134	KeyDown	41324	1	Little	25
477.0700000000001	0	n/a	286243	KeyDown	41324	3	Middle	25
477.3600000000000	0	n/a	286417	KeyDown	41324	2	Ring	25
477.4583333333334	0	n/a	286476	KeyDown	41324	4	Index	25
477.7516666666667	0	n/a	286652	KeyDown	41324	4	Index	25
478.0000000000001	0	n/a	286801	KeyDown	41324	1	Little	25
478.4316666666667	0	n/a	287060	KeyDown	41324	3	Middle	25
478.6750000000000	0	n/a	287206	KeyDown	41324	2	Ring	25
478.7850000000000	0	n/a	287272	KeyDown	41324	4	Index	25
479.0816666666667	0	n/a	287450	KeyDown	41324	4	Index	25
479.3516666666667	0	n/a	287612	KeyDown	41324	1	Little	25
479.5283333333334	0	n/a	287718	KeyDown	41324	2	Ring	25
480.7650000000000	0	n/a	288460	KeyDown	41324	2	Ring	25
481.0266666666667	0	n/a	288617	StopPractice	41324	n/a	n/a	25
481.0283333333334	0	n/a	288618	StartRest	XXXXX	n/a	n/a	25
491.0633333333334	0	n/a	294639	StopRest	XXXXX	n/a	n/a	25
491.0650000000001	0	UPPT001	294640	StartPractice	41324	n/a	n/a	26
492.0166666666667	0	n/a	295211	KeyDown	41324	4	Index	26
492.1983333333334	0	n/a	295320	KeyDown	41324	1	Little	26
492.4166666666667	0	n/a	295451	KeyDown	41324	3	Middle	26
492.6083333333333	0	n/a	295566	KeyDown	41324	2	Ring	26
492.7766666666667	0	n/a	295667	KeyDown	41324	4	Index	26
493.1266666666667	0	n/a	295877	KeyDown	41324	4	Index	26
493.3083333333333	0	n/a	295986	KeyDown	41324	1	Little	26
493.4966666666667	0	n/a	296099	KeyDown	41324	3	Middle	26
493.6516666666667	0	n/a	296192	KeyDown	41324	2	Ring	26
493.8616666666667	0	n/a	296318	KeyDown	41324	4	Index	26
494.1933333333334	0	n/a	296517	KeyDown	41324	4	Index	26
494.3533333333334	0	n/a	296613	KeyDown	41324	1	Little	26
494.5616666666667	0	n/a	296738	KeyDown	41324	3	Middle	26
494.7850000000000	0	n/a	296872	KeyDown	41324	2	Ring	26
494.9416666666667	0	n/a	296966	KeyDown	41324	4	Index	26
495.3066666666667	0	n/a	297185	KeyDown	41324	4	Index	26
495.4683333333334	0	n/a	297282	KeyDown	41324	1	Little	26
495.6883333333334	0	n/a	297414	KeyDown	41324	2	Ring	26
496.5616666666667	0	n/a	297938	KeyDown	41324	3	Middle	26
496.7716666666667	0	n/a	298064	KeyDown	41324	2	Ring	26
496.9983333333334	0	n/a	298200	KeyDown	41324	4	Index	26
497.4483333333334	0	n/a	298470	KeyDown	41324	4	Index	26
497.6116666666667	0	n/a	298568	KeyDown	41324	1	Little	26
497.8466666666667	0	n/a	298709	KeyDown	41324	3	Middle	26
498.0383333333334	0	n/a	298824	KeyDown	41324	2	Ring	26
498.2233333333334	0	n/a	298935	KeyDown	41324	4	Index	26
498.5983333333334	0	n/a	299160	KeyDown	41324	4	Index	26
498.7666666666667	0	n/a	299261	KeyDown	41324	1	Little	26
498.9516666666667	0	n/a	299372	KeyDown	41324	3	Middle	26
499.1216666666667	0	n/a	299474	KeyDown	41324	2	Ring	26
499.3366666666667	0	n/a	299603	KeyDown	41324	4	Index	26
499.6533333333334	0	n/a	299793	KeyDown	41324	4	Index	26
499.8533333333334	0	n/a	299913	KeyDown	41324	1	Little	26
500.0900000000000	0	n/a	300055	KeyDown	41324	3	Middle	26
500.4816666666667	0	n/a	300290	KeyDown	41324	2	Ring	26
500.6116666666667	0	n/a	300368	KeyDown	41324	4	Index	26
501.0433333333334	0	n/a	300627	KeyDown	41324	4	Index	26
501.1033333333334	0	n/a	300663	StopPractice	41324	n/a	n/a	26
501.1050000000000	0	n/a	300664	StartRest	XXXXX	n/a	n/a	26
511.1366666666667	0	n/a	306683	StopRest	XXXXX	n/a	n/a	26
511.1383333333334	0	UPPT001	306684	StartPractice	41324	n/a	n/a	27
511.6633333333334	0	n/a	306999	KeyDown	41324	4	Index	27
511.8483333333334	0	n/a	307110	KeyDown	41324	1	Little	27
512.0350000000001	0	n/a	307222	KeyDown	41324	3	Middle	27
512.1850000000001	0	n/a	307312	KeyDown	41324	2	Ring	27
512.3800000000000	0	n/a	307429	KeyDown	41324	4	Index	27
512.6966666666667	0	n/a	307619	KeyDown	41324	4	Index	27
512.8566666666667	0	n/a	307715	KeyDown	41324	1	Little	27
513.0350000000001	0	n/a	307822	KeyDown	41324	3	Middle	27
513.2083333333334	0	n/a	307926	KeyDown	41324	2	Ring	27
513.4116666666667	0	n/a	308048	KeyDown	41324	4	Index	27
513.7200000000000	0	n/a	308233	KeyDown	41324	4	Index	27
513.8850000000000	0	n/a	308332	KeyDown	41324	1	Little	27
514.0600000000001	0	n/a	308437	KeyDown	41324	3	Middle	27
514.2466666666667	0	n/a	308549	KeyDown	41324	2	Ring	27
514.4200000000001	0	n/a	308653	KeyDown	41324	4	Index	27
514.7700000000000	0	n/a	308863	KeyDown	41324	4	Index	27
514.9250000000001	0	n/a	308956	KeyDown	41324	1	Little	27
515.1216666666667	0	n/a	309074	KeyDown	41324	3	Middle	27
515.3100000000001	0	n/a	309187	KeyDown	41324	2	Ring	27
515.4900000000000	0	n/a	309295	KeyDown	41324	4	Index	27
515.8316666666667	0	n/a	309500	KeyDown	41324	4	Index	27
516.0016666666667	0	n/a	309602	KeyDown	41324	1	Little	27
516.1650000000001	0	n/a	309700	KeyDown	41324	3	Middle	27
516.3550000000000	0	n/a	309814	KeyDown	41324	2	Ring	27
516.5300000000001	0	n/a	309919	KeyDown	41324	4	Index	27
516.8650000000000	0	n/a	310120	KeyDown	41324	4	Index	27
517.0266666666668	0	n/a	310217	KeyDown	41324	1	Little	27
517.2050000000000	0	n/a	310324	KeyDown	41324	3	Middle	27
517.3966666666666	0	n/a	310439	KeyDown	41324	2	Ring	27
517.5850000000000	0	n/a	310552	KeyDown	41324	4	Index	27
517.9150000000001	0	n/a	310750	KeyDown	41324	4	Index	27
518.1016666666667	0	n/a	310862	KeyDown	41324	1	Little	27
518.2466666666667	0	n/a	310949	KeyDown	41324	3	Middle	27
518.4216666666667	0	n/a	311054	KeyDown	41324	2	Ring	27
518.6083333333333	0	n/a	311166	KeyDown	41324	4	Index	27
518.9333333333334	0	n/a	311361	KeyDown	41324	4	Index	27
519.1133333333333	0	n/a	311469	KeyDown	41324	1	Little	27
519.2750000000000	0	n/a	311566	KeyDown	41324	3	Middle	27
519.4666666666667	0	n/a	311681	KeyDown	41324	2	Ring	27
519.6366666666667	0	n/a	311783	KeyDown	41324	4	Index	27
519.9616666666667	0	n/a	311978	KeyDown	41324	4	Index	27
520.1466666666666	0	n/a	312089	KeyDown	41324	1	Little	27
520.3000000000001	0	n/a	312181	KeyDown	41324	3	Middle	27
520.4900000000000	0	n/a	312295	KeyDown	41324	2	Ring	27
520.6783333333334	0	n/a	312408	KeyDown	41324	4	Index	27
520.9983333333333	0	n/a	312600	KeyDown	41324	4	Index	27
521.1766666666667	0	n/a	312707	StopPractice	41324	n/a	n/a	27
521.1783333333334	0	n/a	312708	StartRest	XXXXX	n/a	n/a	27
531.2116666666667	0	n/a	318728	StopRest	XXXXX	n/a	n/a	27
531.2133333333334	0	UPPT001	318729	StartPractice	41324	n/a	n/a	28
531.6300000000000	0	n/a	318979	KeyDown	41324	4	Index	28
531.7766666666668	0	n/a	319067	KeyDown	41324	1	Little	28
531.9550000000000	0	n/a	319174	KeyDown	41324	3	Middle	28
532.1233333333333	0	n/a	319275	KeyDown	41324	2	Ring	28
532.3000000000001	0	n/a	319381	KeyDown	41324	4	Index	28
532.6350000000000	0	n/a	319582	KeyDown	41324	4	Index	28
532.8166666666667	0	n/a	319691	KeyDown	41324	1	Little	28
532.9666666666667	0	n/a	319781	KeyDown	41324	3	Middle	28
533.1500000000001	0	n/a	319891	KeyDown	41324	2	Ring	28
533.3466666666667	0	n/a	320009	KeyDown	41324	4	Index	28
533.6716666666667	0	n/a	320204	KeyDown	41324	4	Index	28
533.8466666666667	0	n/a	320309	KeyDown	41324	1	Little	28
534.0233333333333	0	n/a	320415	KeyDown	41324	3	Middle	28
534.2783333333334	0	n/a	320568	KeyDown	41324	2	Ring	28
534.4250000000001	0	n/a	320656	KeyDown	41324	4	Index	28
534.8366666666667	0	n/a	320903	KeyDown	41324	4	Index	28
535.0800000000000	0	n/a	321049	KeyDown	41324	1	Little	28
535.2400000000000	0	n/a	321145	KeyDown	41324	3	Middle	28
535.5650000000001	0	n/a	321340	KeyDown	41324	2	Ring	28
535.7300000000000	0	n/a	321439	KeyDown	41324	4	Index	28
536.0800000000000	0	n/a	321649	KeyDown	41324	4	Index	28
536.2433333333333	0	n/a	321747	KeyDown	41324	1	Little	28
536.4250000000001	0	n/a	321856	KeyDown	41324	3	Middle	28
536.6266666666667	0	n/a	321977	KeyDown	41324	2	Ring	28
536.7916666666667	0	n/a	322076	KeyDown	41324	4	Index	28
537.1333333333333	0	n/a	322281	KeyDown	41324	4	Index	28
537.2750000000001	0	n/a	322366	KeyDown	41324	1	Little	28
537.4616666666667	0	n/a	322478	KeyDown	41324	3	Middle	28
537.6666666666667	0	n/a	322601	KeyDown	41324	2	Ring	28
537.8650000000000	0	n/a	322720	KeyDown	41324	4	Index	28
538.1850000000001	0	n/a	322912	KeyDown	41324	4	Index	28
538.3416666666667	0	n/a	323006	KeyDown	41324	1	Little	28
538.5100000000000	0	n/a	323107	KeyDown	41324	3	Middle	28
538.6933333333334	0	n/a	323217	KeyDown	41324	2	Ring	28
538.8866666666667	0	n/a	323333	KeyDown	41324	4	Index	28
539.2100000000000	0	n/a	323527	KeyDown	41324	4	Index	28
539.3900000000000	0	n/a	323635	KeyDown	41324	1	Little	28
539.5633333333334	0	n/a	323739	KeyDown	41324	3	Middle	28
539.7416666666667	0	n/a	323846	KeyDown	41324	2	Ring	28
539.9216666666667	0	n/a	323954	KeyDown	41324	4	Index	28
540.2550000000000	0	n/a	324154	KeyDown	41324	4	Index	28
540.4216666666667	0	n/a	324254	KeyDown	41324	1	Little	28
540.5850000000000	0	n/a	324352	KeyDown	41324	3	Middle	28
540.7600000000000	0	n/a	324457	KeyDown	41324	2	Ring	28
540.9600000000000	0	n/a	324577	KeyDown	41324	4	Index	28
541.2516666666667	0	n/a	324752	StopPractice	41324	n/a	n/a	28
541.2533333333333	0	n/a	324753	StartRest	XXXXX	n/a	n/a	28
551.2866666666667	0	n/a	330773	StopRest	XXXXX	n/a	n/a	28
551.2883333333334	0	UPPT001	330774	StartPractice	41324	n/a	n/a	29
551.7716666666666	0	n/a	331064	KeyDown	41324	4	Index	29
551.9200000000001	0	n/a	331153	KeyDown	41324	1	Little	29
552.1016666666667	0	n/a	331262	KeyDown	41324	3	Middle	29
552.2550000000000	0	n/a	331354	KeyDown	41324	2	Ring	29
552.4533333333334	0	n/a	331473	KeyDown	41324	4	Index	29
552.7650000000000	0	n/a	331660	KeyDown	41324	4	Index	29
552.9216666666667	0	n/a	331754	KeyDown	41324	1	Little	29
553.1050000000000	0	n/a	331864	KeyDown	41324	3	Middle	29
553.2600000000000	0	n/a	331957	KeyDown	41324	2	Ring	29
553.4500000000000	0	n/a	332071	KeyDown	41324	4	Index	29
553.7683333333333	0	n/a	332262	KeyDown	41324	4	Index	29
553.9150000000001	0	n/a	332350	KeyDown	41324	1	Little	29
554.1150000000000	0	n/a	332470	KeyDown	41324	3	Middle	29
554.2866666666667	0	n/a	332573	KeyDown	41324	2	Ring	29
554.4816666666667	0	n/a	332690	KeyDown	41324	4	Index	29
554.8166666666667	0	n/a	332891	KeyDown	41324	4	Index	29
554.9716666666667	0	n/a	332984	KeyDown	41324	1	Little	29
555.1816666666667	0	n/a	333110	KeyDown	41324	3	Middle	29
555.4200000000001	0	n/a	333253	KeyDown	41324	2	Ring	29
555.6016666666667	0	n/a	333362	KeyDown	41324	4	Index	29
556.0116666666667	0	n/a	333608	KeyDown	41324	4	Index	29
556.1600000000001	0	n/a	333697	KeyDown	41324	1	Little	29
556.3633333333333	0	n/a	333819	KeyDown	41324	3	Middle	29
556.5950000000000	0	n/a	333958	KeyDown	41324	2	Ring	29
556.7366666666667	0	n/a	334043	KeyDown	41324	4	Index	29
557.0766666666667	0	n/a	334247	KeyDown	41324	4	Index	29
557.2316666666667	0	n/a	334340	KeyDown	41324	1	Little	29
557.4216666666667	0	n/a	334454	KeyDown	41324	3	Middle	29
557.6183333333333	0	n/a	334572	KeyDown	41324	4	Index	29
557.7816666666668	0	n/a	334670	KeyDown	41324	2	Ring	29
558.4066666666668	0	n/a	335045	KeyDown	41324	4	Index	29
558.5483333333334	0	n/a	335130	KeyDown	41324	1	Little	29
558.7450000000000	0	n/a	335248	KeyDown	41324	3	Middle	29
559.0166666666667	0	n/a	335411	KeyDown	41324	4	Index	29
559.1483333333334	0	n/a	335490	KeyDown	41324	2	Ring	29
559.9850000000000	0	n/a	335992	KeyDown	41324	4	Index	29
560.1216666666667	0	n/a	336074	KeyDown	41324	1	Little	29
560.3383333333334	0	n/a	336204	KeyDown	41324	3	Middle	29
560.4716666666667	0	n/a	336284	KeyDown	41324	2	Ring	29
560.6900000000001	0	n/a	336415	KeyDown	41324	4	Index	29
561.0600000000001	0	n/a	336637	KeyDown	41324	4	Index	29
561.2366666666667	0	n/a	336743	KeyDown	41324	1	Little	29
561.3266666666667	0	n/a	336797	StopPractice	41324	n/a	n/a	29
561.3283333333334	0	n/a	336798	StartRest	XXXXX	n/a	n/a	29
571.3600000000000	0	n/a	342817	StopRest	XXXXX	n/a	n/a	29
571.3616666666667	0	UPPT001	342818	StartPractice	41324	n/a	n/a	30
571.8283333333334	0	n/a	343098	KeyDown	41324	4	Index	30
571.9883333333333	0	n/a	343194	KeyDown	41324	1	Little	30
572.1850000000001	0	n/a	343312	KeyDown	41324	3	Middle	30
572.3333333333334	0	n/a	343401	KeyDown	41324	2	Ring	30
572.5383333333334	0	n/a	343524	KeyDown	41324	4	Index	30
572.8783333333333	0	n/a	343728	KeyDown	41324	4	Index	30
573.0583333333334	0	n/a	343836	KeyDown	41324	1	Little	30
573.2333333333333	0	n/a	343941	KeyDown	41324	3	Middle	30
573.3933333333333	0	n/a	344037	KeyDown	41324	2	Ring	30
573.5933333333334	0	n/a	344157	KeyDown	41324	4	Index	30
573.9250000000001	0	n/a	344356	KeyDown	41324	4	Index	30
574.0933333333334	0	n/a	344457	KeyDown	41324	1	Little	30
574.2766666666668	0	n/a	344567	KeyDown	41324	3	Middle	30
574.4283333333334	0	n/a	344658	KeyDown	41324	2	Ring	30
574.6350000000000	0	n/a	344782	KeyDown	41324	4	Index	30
574.9733333333334	0	n/a	344985	KeyDown	41324	4	Index	30
575.1333333333333	0	n/a	345081	KeyDown	41324	1	Little	30
575.3550000000000	0	n/a	345214	KeyDown	41324	3	Middle	30
575.5133333333333	0	n/a	345309	KeyDown	41324	2	Ring	30
575.7133333333334	0	n/a	345429	KeyDown	41324	4	Index	30
576.0600000000001	0	n/a	345637	KeyDown	41324	4	Index	30
576.2133333333334	0	n/a	345729	KeyDown	41324	1	Little	30
576.3933333333333	0	n/a	345837	KeyDown	41324	3	Middle	30
576.5616666666667	0	n/a	345938	KeyDown	41324	2	Ring	30
576.7400000000000	0	n/a	346045	KeyDown	41324	4	Index	30
577.0883333333334	0	n/a	346254	KeyDown	41324	4	Index	30
577.2500000000000	0	n/a	346351	KeyDown	41324	1	Little	30
577.4316666666667	0	n/a	346460	KeyDown	41324	3	Middle	30
577.5816666666667	0	n/a	346550	KeyDown	41324	2	Ring	30
577.7600000000000	0	n/a	346657	KeyDown	41324	4	Index	30
578.1133333333333	0	n/a	346869	KeyDown	41324	4	Index	30
578.2816666666668	0	n/a	346970	KeyDown	41324	1	Little	30
578.5083333333333	0	n/a	347106	KeyDown	41324	3	Middle	30
578.8500000000000	0	n/a	347311	KeyDown	41324	2	Ring	30
579.0283333333334	0	n/a	347418	KeyDown	41324	4	Index	30
579.4016666666668	0	n/a	347642	KeyDown	41324	4	Index	30
579.9983333333333	0	n/a	348000	KeyDown	41324	1	Little	30
580.2066666666667	0	n/a	348125	KeyDown	41324	3	Middle	30
580.4866666666667	0	n/a	348293	KeyDown	41324	2	Ring	30
580.6383333333333	0	n/a	348384	KeyDown	41324	4	Index	30
581.0850000000000	0	n/a	348652	KeyDown	41324	4	Index	30
581.2333333333333	0	n/a	348741	KeyDown	41324	1	Little	30
581.4000000000001	0	n/a	348841	StopPractice	41324	n/a	n/a	30
581.4016666666668	0	n/a	348842	StartRest	XXXXX	n/a	n/a	30
591.4366666666667	0	n/a	354863	StopRest	XXXXX	n/a	n/a	30
591.4383333333334	0	UPPT001	354864	StartPractice	41324	n/a	n/a	31
591.9066666666668	0	n/a	355145	KeyDown	41324	4	Index	31
592.0200000000000	0	n/a	355213	KeyDown	41324	1	Little	31
592.2000000000000	0	n/a	355321	KeyDown	41324	3	Middle	31
592.3200000000001	0	n/a	355393	KeyDown	41324	2	Ring	31
592.4600000000000	0	n/a	355477	KeyDown	41324	4	Index	31
592.7566666666667	0	n/a	355655	KeyDown	41324	4	Index	31
592.9000000000001	0	n/a	355741	KeyDown	41324	1	Little	31
593.0150000000000	0	n/a	355810	KeyDown	41324	3	Middle	31
593.1466666666668	0	n/a	355889	KeyDown	41324	2	Ring	31
593.2850000000001	0	n/a	355972	KeyDown	41324	4	Index	31
593.6083333333333	0	n/a	356166	KeyDown	41324	4	Index	31
593.7433333333333	0	n/a	356247	KeyDown	41324	1	Little	31
593.8600000000000	0	n/a	356317	KeyDown	41324	3	Middle	31
594.0116666666667	0	n/a	356408	KeyDown	41324	2	Ring	31
594.1283333333333	0	n/a	356478	KeyDown	41324	4	Index	31
594.4850000000000	0	n/a	356692	KeyDown	41324	4	Index	31
594.6233333333333	0	n/a	356775	KeyDown	41324	1	Little	31
594.7600000000000	0	n/a	356857	KeyDown	41324	3	Middle	31
594.9283333333334	0	n/a	356958	KeyDown	41324	2	Ring	31
595.0533333333334	0	n/a	357033	KeyDown	41324	4	Index	31
595.4250000000001	0	n/a	357256	KeyDown	41324	4	Index	31
595.5500000000001	0	n/a	357331	KeyDown	41324	1	Little	31
595.7083333333334	0	n/a	357426	KeyDown	41324	3	Middle	31
595.8416666666667	0	n/a	357506	KeyDown	41324	2	Ring	31
595.9700000000000	0	n/a	357583	KeyDown	41324	4	Index	31
596.2700000000000	0	n/a	357763	KeyDown	41324	4	Index	31
596.4300000000001	0	n/a	357859	KeyDown	41324	1	Little	31
596.5883333333334	0	n/a	357954	KeyDown	41324	3	Middle	31
596.7300000000000	0	n/a	358039	KeyDown	41324	2	Ring	31
596.8500000000000	0	n/a	358111	KeyDown	41324	4	Index	31
597.1783333333334	0	n/a	358308	KeyDown	41324	4	Index	31
597.3366666666667	0	n/a	358403	KeyDown	41324	1	Little	31
597.4716666666667	0	n/a	358484	KeyDown	41324	3	Middle	31
597.6400000000000	0	n/a	358585	KeyDown	41324	2	Ring	31
597.7816666666668	0	n/a	358670	KeyDown	41324	4	Index	31
598.1766666666667	0	n/a	358907	KeyDown	41324	4	Index	31
598.5866666666667	0	n/a	359153	KeyDown	41324	1	Little	31
598.7316666666667	0	n/a	359240	KeyDown	41324	3	Middle	31
598.8900000000000	0	n/a	359335	KeyDown	41324	2	Ring	31
599.0633333333334	0	n/a	359439	KeyDown	41324	4	Index	31
599.3466666666667	0	n/a	359609	KeyDown	41324	4	Index	31
599.4966666666667	0	n/a	359699	KeyDown	41324	1	Little	31
599.7166666666667	0	n/a	359831	KeyDown	41324	3	Middle	31
599.8750000000000	0	n/a	359926	KeyDown	41324	2	Ring	31
600.0416666666667	0	n/a	360026	KeyDown	41324	4	Index	31
600.3266666666667	0	n/a	360197	KeyDown	41324	4	Index	31
600.4850000000000	0	n/a	360292	KeyDown	41324	1	Little	31
600.6650000000001	0	n/a	360400	KeyDown	41324	3	Middle	31
600.8550000000000	0	n/a	360514	KeyDown	41324	2	Ring	31
601.0966666666667	0	n/a	360659	KeyDown	41324	4	Index	31
601.4350000000001	0	n/a	360862	KeyDown	41324	4	Index	31
601.4766666666667	0	n/a	360887	StopPractice	41324	n/a	n/a	31
601.4783333333334	0	n/a	360888	StartRest	XXXXX	n/a	n/a	31
611.5283333333334	0	n/a	366918	StopRest	XXXXX	n/a	n/a	31
611.5300000000001	0	UPPT001	366919	StartPractice	41324	n/a	n/a	32
611.8583333333333	0	n/a	367116	KeyDown	41324	4	Index	32
612.0133333333333	0	n/a	367209	KeyDown	41324	1	Little	32
612.1933333333334	0	n/a	367317	KeyDown	41324	3	Middle	32
612.2933333333334	0	n/a	367377	KeyDown	41324	2	Ring	32
612.4883333333333	0	n/a	367494	KeyDown	41324	4	Index	32
612.7733333333334	0	n/a	367665	KeyDown	41324	4	Index	32
612.9083333333334	0	n/a	367746	KeyDown	41324	1	Little	32
613.0516666666667	0	n/a	367832	KeyDown	41324	3	Middle	32
613.1900000000001	0	n/a	367915	KeyDown	41324	2	Ring	32
613.3466666666667	0	n/a	368009	KeyDown	41324	4	Index	32
613.6416666666667	0	n/a	368186	KeyDown	41324	4	Index	32
613.7533333333333	0	n/a	368253	KeyDown	41324	1	Little	32
613.9233333333334	0	n/a	368355	KeyDown	41324	3	Middle	32
614.0800000000000	0	n/a	368449	KeyDown	41324	2	Ring	32
614.2433333333333	0	n/a	368547	KeyDown	41324	4	Index	32
614.6716666666667	0	n/a	368804	KeyDown	41324	4	Index	32
614.8216666666667	0	n/a	368894	KeyDown	41324	1	Little	32
615.0200000000001	0	n/a	369013	KeyDown	41324	3	Middle	32
615.2283333333334	0	n/a	369138	KeyDown	41324	2	Ring	32
615.3833333333333	0	n/a	369231	KeyDown	41324	4	Index	32
616.0133333333333	0	n/a	369609	KeyDown	41324	4	Index	32
616.1283333333333	0	n/a	369678	KeyDown	41324	1	Little	32
616.3033333333334	0	n/a	369783	KeyDown	41324	3	Middle	32
616.4616666666667	0	n/a	369878	KeyDown	41324	2	Ring	32
616.6200000000000	0	n/a	369973	KeyDown	41324	4	Index	32
616.8866666666667	0	n/a	370133	KeyDown	41324	4	Index	32
617.0466666666667	0	n/a	370229	KeyDown	41324	1	Little	32
617.1916666666667	0	n/a	370316	KeyDown	41324	3	Middle	32
617.4216666666667	0	n/a	370454	KeyDown	41324	4	Index	32
617.4500000000000	0	n/a	370471	KeyDown	41324	2	Ring	32
617.7416666666667	0	n/a	370646	KeyDown	41324	4	Index	32
618.1500000000001	0	n/a	370891	KeyDown	41324	4	Index	32
618.2833333333334	0	n/a	370971	KeyDown	41324	1	Little	32
618.4616666666667	0	n/a	371078	KeyDown	41324	2	Ring	32
618.5633333333334	0	n/a	371139	KeyDown	41324	3	Middle	32
618.9033333333334	0	n/a	371343	KeyDown	41324	2	Ring	32
619.0433333333334	0	n/a	371427	KeyDown	41324	4	Index	32
619.4483333333334	0	n/a	371670	KeyDown	41324	4	Index	32
619.6933333333334	0	n/a	371817	KeyDown	41324	1	Little	32
619.8366666666667	0	n/a	371903	KeyDown	41324	3	Middle	32
620.1616666666667	0	n/a	372098	KeyDown	41324	2	Ring	32
620.2866666666667	0	n/a	372173	KeyDown	41324	4	Index	32
620.6083333333333	0	n/a	372366	KeyDown	41324	4	Index	32
620.8316666666667	0	n/a	372500	KeyDown	41324	1	Little	32
621.0183333333333	0	n/a	372612	KeyDown	41324	3	Middle	32
621.2433333333333	0	n/a	372747	KeyDown	41324	2	Ring	32
621.4033333333334	0	n/a	372843	KeyDown	41324	4	Index	32
621.5683333333334	0	n/a	372942	StopPractice	41324	n/a	n/a	32
621.5700000000001	0	n/a	372943	StartRest	XXXXX	n/a	n/a	32
631.6016666666667	0	n/a	378962	StopRest	XXXXX	n/a	n/a	32
631.6033333333334	0	UPPT001	378963	StartPractice	41324	n/a	n/a	33
631.9983333333333	0	n/a	379200	KeyDown	41324	4	Index	33
632.1200000000000	0	n/a	379273	KeyDown	41324	1	Little	33
632.2666666666667	0	n/a	379361	KeyDown	41324	3	Middle	33
632.4033333333334	0	n/a	379443	KeyDown	41324	2	Ring	33
632.5700000000001	0	n/a	379543	KeyDown	41324	4	Index	33
632.8650000000000	0	n/a	379720	KeyDown	41324	4	Index	33
633.0050000000000	0	n/a	379804	KeyDown	41324	1	Little	33
633.1233333333333	0	n/a	379875	KeyDown	41324	3	Middle	33
633.2700000000001	0	n/a	379963	KeyDown	41324	2	Ring	33
633.4150000000001	0	n/a	380050	KeyDown	41324	4	Index	33
633.7300000000000	0	n/a	380239	KeyDown	41324	4	Index	33
633.8733333333333	0	n/a	380325	KeyDown	41324	1	Little	33
633.9933333333333	0	n/a	380397	KeyDown	41324	3	Middle	33
634.1450000000001	0	n/a	380488	KeyDown	41324	2	Ring	33
634.3033333333334	0	n/a	380583	KeyDown	41324	4	Index	33
634.6150000000000	0	n/a	380770	KeyDown	41324	4	Index	33
634.7533333333333	0	n/a	380853	KeyDown	41324	1	Little	33
634.8700000000000	0	n/a	380923	KeyDown	41324	3	Middle	33
635.0350000000001	0	n/a	381022	KeyDown	41324	2	Ring	33
635.1883333333334	0	n/a	381114	KeyDown	41324	4	Index	33
635.5000000000000	0	n/a	381301	KeyDown	41324	4	Index	33
635.6666666666667	0	n/a	381401	KeyDown	41324	1	Little	33
635.7800000000001	0	n/a	381469	KeyDown	41324	3	Middle	33
635.9350000000001	0	n/a	381562	KeyDown	41324	2	Ring	33
636.0900000000000	0	n/a	381655	KeyDown	41324	4	Index	33
636.3866666666667	0	n/a	381833	KeyDown	41324	4	Index	33
636.5466666666667	0	n/a	381929	KeyDown	41324	1	Little	33
636.6350000000000	0	n/a	381982	KeyDown	41324	3	Middle	33
636.8483333333334	0	n/a	382110	KeyDown	41324	2	Ring	33
636.9316666666667	0	n/a	382160	KeyDown	41324	4	Index	33
637.8116666666667	0	n/a	382688	KeyDown	41324	1	Little	33
638.6433333333334	0	n/a	383187	KeyDown	41324	4	Index	33
638.7716666666668	0	n/a	383264	KeyDown	41324	1	Little	33
638.9400000000001	0	n/a	383365	KeyDown	41324	3	Middle	33
639.0850000000000	0	n/a	383452	KeyDown	41324	2	Ring	33
639.2116666666667	0	n/a	383528	KeyDown	41324	4	Index	33
639.5866666666667	0	n/a	383753	KeyDown	41324	4	Index	33
639.7450000000000	0	n/a	383848	KeyDown	41324	1	Little	33
639.8666666666667	0	n/a	383921	KeyDown	41324	3	Middle	33
640.0166666666667	0	n/a	384011	KeyDown	41324	2	Ring	33
640.1650000000001	0	n/a	384100	KeyDown	41324	4	Index	33
640.6650000000001	0	n/a	384400	KeyDown	41324	4	Index	33
640.8100000000001	0	n/a	384487	KeyDown	41324	1	Little	33
640.9800000000000	0	n/a	384589	KeyDown	41324	3	Middle	33
641.1666666666667	0	n/a	384701	KeyDown	41324	2	Ring	33
641.3000000000001	0	n/a	384781	KeyDown	41324	4	Index	33
641.6416666666667	0	n/a	384986	StopPractice	41324	n/a	n/a	33
641.6433333333334	0	n/a	384987	StartRest	XXXXX	n/a	n/a	33
651.6766666666667	0	n/a	391007	StopRest	XXXXX	n/a	n/a	33
651.6783333333334	0	UPPT001	391008	StartPractice	41324	n/a	n/a	34
652.5966666666667	0	n/a	391559	KeyDown	41324	4	Index	34
652.7316666666667	0	n/a	391640	KeyDown	41324	1	Little	34
652.9050000000001	0	n/a	391744	KeyDown	41324	3	Middle	34
653.0350000000001	0	n/a	391822	KeyDown	41324	2	Ring	34
653.1883333333334	0	n/a	391914	KeyDown	41324	4	Index	34
653.5283333333334	0	n/a	392118	KeyDown	41324	4	Index	34
653.9066666666668	0	n/a	392345	KeyDown	41324	1	Little	34
654.1433333333334	0	n/a	392487	KeyDown	41324	3	Middle	34
654.3250000000000	0	n/a	392596	KeyDown	41324	2	Ring	34
654.4550000000000	0	n/a	392674	KeyDown	41324	4	Index	34
654.7916666666667	0	n/a	392876	KeyDown	41324	4	Index	34
654.9600000000000	0	n/a	392977	KeyDown	41324	1	Little	34
655.1016666666667	0	n/a	393062	KeyDown	41324	3	Middle	34
655.2900000000001	0	n/a	393175	KeyDown	41324	2	Ring	34
655.4283333333334	0	n/a	393258	KeyDown	41324	4	Index	34
655.7366666666667	0	n/a	393443	KeyDown	41324	4	Index	34
655.8916666666668	0	n/a	393536	KeyDown	41324	1	Little	34
656.1116666666667	0	n/a	393668	KeyDown	41324	3	Middle	34
656.3250000000000	0	n/a	393796	KeyDown	41324	4	Index	34
657.1900000000001	0	n/a	394315	KeyDown	41324	4	Index	34
657.3366666666667	0	n/a	394403	KeyDown	41324	1	Little	34
657.5150000000000	0	n/a	394510	KeyDown	41324	3	Middle	34
657.6750000000001	0	n/a	394606	KeyDown	41324	2	Ring	34
657.8600000000000	0	n/a	394717	KeyDown	41324	4	Index	34
658.5000000000000	0	n/a	395101	KeyDown	41324	1	Little	34
658.8966666666668	0	n/a	395339	KeyDown	41324	4	Index	34
659.0900000000000	0	n/a	395455	KeyDown	41324	1	Little	34
659.3050000000001	0	n/a	395584	KeyDown	41324	3	Middle	34
659.4266666666667	0	n/a	395657	KeyDown	41324	2	Ring	34
659.6233333333333	0	n/a	395775	KeyDown	41324	4	Index	34
659.9550000000000	0	n/a	395974	KeyDown	41324	4	Index	34
660.0900000000000	0	n/a	396055	KeyDown	41324	1	Little	34
660.2583333333333	0	n/a	396156	KeyDown	41324	3	Middle	34
660.4016666666668	0	n/a	396242	KeyDown	41324	2	Ring	34
660.6000000000000	0	n/a	396361	KeyDown	41324	4	Index	34
660.9266666666667	0	n/a	396557	KeyDown	41324	4	Index	34
661.1050000000000	0	n/a	396664	KeyDown	41324	1	Little	34
661.2766666666668	0	n/a	396767	KeyDown	41324	3	Middle	34
661.4150000000001	0	n/a	396850	KeyDown	41324	2	Ring	34
661.6233333333333	0	n/a	396975	KeyDown	41324	4	Index	34
661.7166666666667	0	n/a	397031	StopPractice	41324	n/a	n/a	34
661.7183333333334	0	n/a	397032	StartRest	XXXXX	n/a	n/a	34
671.7516666666667	0	n/a	403052	StopRest	XXXXX	n/a	n/a	34
671.7533333333333	0	UPPT001	403053	StartPractice	41324	n/a	n/a	35
672.3716666666667	0	n/a	403424	KeyDown	41324	4	Index	35
672.4716666666667	0	n/a	403484	KeyDown	41324	1	Little	35
672.6500000000001	0	n/a	403591	KeyDown	41324	3	Middle	35
672.7916666666667	0	n/a	403676	KeyDown	41324	2	Ring	35
672.9516666666667	0	n/a	403772	KeyDown	41324	4	Index	35
673.5600000000001	0	n/a	404137	KeyDown	41324	4	Index	35
673.6966666666667	0	n/a	404219	KeyDown	41324	1	Little	35
673.8950000000001	0	n/a	404338	KeyDown	41324	3	Middle	35
674.0450000000001	0	n/a	404428	KeyDown	41324	2	Ring	35
674.1900000000001	0	n/a	404515	KeyDown	41324	4	Index	35
674.5183333333334	0	n/a	404712	KeyDown	41324	4	Index	35
674.6716666666667	0	n/a	404804	KeyDown	41324	1	Little	35
674.8350000000000	0	n/a	404902	KeyDown	41324	3	Middle	35
674.9683333333334	0	n/a	404982	KeyDown	41324	2	Ring	35
675.1316666666667	0	n/a	405080	KeyDown	41324	4	Index	35
675.4366666666667	0	n/a	405263	KeyDown	41324	4	Index	35
675.5950000000000	0	n/a	405358	KeyDown	41324	1	Little	35
675.7450000000000	0	n/a	405448	KeyDown	41324	3	Middle	35
675.8883333333333	0	n/a	405534	KeyDown	41324	2	Ring	35
676.0450000000001	0	n/a	405628	KeyDown	41324	4	Index	35
676.3583333333333	0	n/a	405816	KeyDown	41324	4	Index	35
676.5116666666667	0	n/a	405908	KeyDown	41324	1	Little	35
676.6866666666667	0	n/a	406013	KeyDown	41324	3	Middle	35
676.8400000000000	0	n/a	406105	KeyDown	41324	2	Ring	35
677.0050000000000	0	n/a	406204	KeyDown	41324	4	Index	35
677.3200000000001	0	n/a	406393	KeyDown	41324	4	Index	35
677.5283333333334	0	n/a	406518	KeyDown	41324	1	Little	35
677.6933333333334	0	n/a	406617	KeyDown	41324	3	Middle	35
677.8400000000000	0	n/a	406705	KeyDown	41324	2	Ring	35
678.0166666666668	0	n/a	406811	KeyDown	41324	4	Index	35
678.3800000000000	0	n/a	407029	KeyDown	41324	4	Index	35
678.5716666666667	0	n/a	407144	KeyDown	41324	1	Little	35
678.7300000000000	0	n/a	407239	KeyDown	41324	3	Middle	35
678.9850000000000	0	n/a	407392	KeyDown	41324	2	Ring	35
679.1166666666667	0	n/a	407471	KeyDown	41324	4	Index	35
679.5316666666668	0	n/a	407720	KeyDown	41324	4	Index	35
679.9716666666667	0	n/a	407984	KeyDown	41324	1	Little	35
680.1716666666667	0	n/a	408104	KeyDown	41324	3	Middle	35
680.3866666666667	0	n/a	408233	KeyDown	41324	2	Ring	35
680.5266666666668	0	n/a	408317	KeyDown	41324	4	Index	35
680.8533333333334	0	n/a	408513	KeyDown	41324	4	Index	35
681.1800000000001	0	n/a	408709	KeyDown	41324	1	Little	35
681.3450000000000	0	n/a	408808	KeyDown	41324	3	Middle	35
681.5916666666667	0	n/a	408956	KeyDown	41324	2	Ring	35
681.7550000000000	0	n/a	409054	KeyDown	41324	4	Index	35
681.7916666666667	0	n/a	409076	StopPractice	41324	n/a	n/a	35
681.7933333333334	0	n/a	409077	StartRest	XXXXX	n/a	n/a	35
691.8266666666667	0	n/a	415097	StopRest	XXXXX	n/a	n/a	35
691.8283333333334	0	UPPT001	415098	StartPractice	41324	n/a	n/a	36
692.2950000000001	0	n/a	415378	KeyDown	41324	4	Index	36
692.4416666666667	0	n/a	415466	KeyDown	41324	1	Little	36
692.6200000000000	0	n/a	415573	KeyDown	41324	3	Middle	36
692.7583333333333	0	n/a	415656	KeyDown	41324	2	Ring	36
692.9366666666667	0	n/a	415763	KeyDown	41324	4	Index	36
693.2266666666667	0	n/a	415937	KeyDown	41324	4	Index	36
693.3716666666667	0	n/a	416024	KeyDown	41324	1	Little	36
693.5133333333333	0	n/a	416109	KeyDown	41324	3	Middle	36
693.6600000000001	0	n/a	416197	KeyDown	41324	2	Ring	36
693.8616666666667	0	n/a	416318	KeyDown	41324	4	Index	36
694.4500000000000	0	n/a	416671	KeyDown	41324	4	Index	36
694.6000000000000	0	n/a	416761	KeyDown	41324	1	Little	36
694.7850000000001	0	n/a	416872	KeyDown	41324	3	Middle	36
694.9233333333334	0	n/a	416955	KeyDown	41324	2	Ring	36
695.1100000000000	0	n/a	417067	KeyDown	41324	4	Index	36
695.4066666666668	0	n/a	417245	KeyDown	41324	4	Index	36
695.5616666666667	0	n/a	417338	KeyDown	41324	1	Little	36
695.7166666666667	0	n/a	417431	KeyDown	41324	3	Middle	36
695.8516666666667	0	n/a	417512	KeyDown	41324	2	Ring	36
696.0366666666667	0	n/a	417623	KeyDown	41324	4	Index	36
696.3333333333334	0	n/a	417801	KeyDown	41324	4	Index	36
696.4850000000000	0	n/a	417892	KeyDown	41324	1	Little	36
696.6700000000001	0	n/a	418003	KeyDown	41324	3	Middle	36
696.8283333333334	0	n/a	418098	KeyDown	41324	2	Ring	36
696.9866666666667	0	n/a	418193	KeyDown	41324	4	Index	36
697.3216666666667	0	n/a	418394	KeyDown	41324	4	Index	36
697.4916666666667	0	n/a	418496	KeyDown	41324	1	Little	36
698.1216666666667	0	n/a	418874	KeyDown	41324	3	Middle	36
698.2550000000000	0	n/a	418954	KeyDown	41324	2	Ring	36
698.4216666666667	0	n/a	419054	KeyDown	41324	4	Index	36
698.7250000000000	0	n/a	419236	KeyDown	41324	4	Index	36
698.9050000000001	0	n/a	419344	KeyDown	41324	1	Little	36
699.0766666666667	0	n/a	419447	KeyDown	41324	3	Middle	36
699.2100000000000	0	n/a	419527	KeyDown	41324	2	Ring	36
699.3816666666667	0	n/a	419630	KeyDown	41324	4	Index	36
699.6866666666667	0	n/a	419813	KeyDown	41324	4	Index	36
699.8400000000000	0	n/a	419905	KeyDown	41324	1	Little	36
700.0383333333334	0	n/a	420024	KeyDown	41324	3	Middle	36
700.1666666666667	0	n/a	420101	KeyDown	41324	2	Ring	36
700.3716666666667	0	n/a	420224	KeyDown	41324	3	Middle	36
700.4916666666667	0	n/a	420296	KeyDown	41324	4	Index	36
701.5433333333334	0	n/a	420927	KeyDown	41324	4	Index	36
701.7066666666667	0	n/a	421025	KeyDown	41324	1	Little	36
701.8666666666667	0	n/a	421121	StopPractice	41324	n/a	n/a	36
701.8683333333333	0	n/a	421122	StartRest	XXXXX	n/a	n/a	36
711.9033333333334	0	n/a	427143	StopRest	XXXXX	n/a	n/a	36
