onset	duration	channel	onset_sample_idx	event_type	target_sequence	keypress_id	finger_label	trial_number
20.1300000000000	0	UPPT001	12079	StartPractice	41324	n/a	n/a	1
21.3116666666667	0	n/a	12788	KeyDown	41324	4	Index	1
21.9000000000000	0	n/a	13141	KeyDown	41324	1	Little	1
23.0816666666667	0	n/a	13850	KeyDown	41324	3	Middle	1
24.1516666666667	0	n/a	14492	KeyDown	41324	2	Ring	1
24.9916666666667	0	n/a	14996	KeyDown	41324	4	Index	1
28.5466666666667	0	n/a	17129	KeyDown	41324	4	Index	1
30.1683333333333	0	n/a	18102	StopPractice	41324	n/a	n/a	1
30.1700000000000	0	n/a	18103	StartRest	XXXXX	n/a	n/a	1
40.2033333333333	0	n/a	24123	StopRest	XXXXX	n/a	n/a	1
40.2050000000000	0	UPPT001	24124	StartPractice	41324	n/a	n/a	2
41.3033333333333	0	n/a	24783	KeyDown	41324	4	Index	2
41.7600000000000	0	n/a	25057	KeyDown	41324	1	Little	2
42.2350000000000	0	n/a	25342	KeyDown	41324	3	Middle	2
42.6866666666667	0	n/a	25613	KeyDown	41324	2	Ring	2
43.0833333333333	0	n/a	25851	KeyDown	41324	4	Index	2
43.6016666666667	0	n/a	26162	KeyDown	41324	4	Index	2
44.0166666666667	0	n/a	26411	KeyDown	41324	1	Little	2
45.0416666666667	0	n/a	27026	KeyDown	41324	3	Middle	2
45.4516666666667	0	n/a	27272	KeyDown	41324	2	Ring	2
45.8150000000000	0	n/a	27490	KeyDown	41324	4	Index	2
46.2100000000000	0	n/a	27727	KeyDown	41324	4	Index	2
46.5700000000000	0	n/a	27943	KeyDown	41324	1	Little	2
47.0916666666667	0	n/a	28256	KeyDown	41324	3	Middle	2
47.4966666666667	0	n/a	28499	KeyDown	41324	2	Ring	2
47.8283333333333	0	n/a	28698	KeyDown	41324	4	Index	2
48.1733333333333	0	n/a	28905	KeyDown	41324	4	Index	2
48.5016666666667	0	n/a	29102	KeyDown	41324	1	Little	2
49.1833333333333	0	n/a	29511	KeyDown	41324	3	Middle	2
49.5483333333333	0	n/a	29730	KeyDown	41324	2	Ring	2
49.8133333333333	0	n/a	29889	KeyDown	41324	4	Index	2
50.1283333333333	0	n/a	30078	KeyDown	41324	4	Index	2
50.2433333333333	0	n/a	30147	StopPractice	41324	n/a	n/a	2
50.2450000000000	0	n/a	30148	StartRest	XXXXX	n/a	n/a	2
60.2783333333333	0	n/a	36168	StopRest	XXXXX	n/a	n/a	2
60.2800000000000	0	UPPT001	36169	StartPractice	41324	n/a	n/a	3
60.9683333333333	0	n/a	36582	KeyDown	41324	4	Index	3
61.3383333333333	0	n/a	36804	KeyDown	41324	1	Little	3
61.7450000000000	0	n/a	37048	KeyDown	41324	3	Middle	3
62.1250000000000	0	n/a	37276	KeyDown	41324	2	Ring	3
62.4166666666667	0	n/a	37451	KeyDown	41324	4	Index	3
62.6950000000000	0	n/a	37618	KeyDown	41324	4	Index	3
62.9416666666667	0	n/a	37766	KeyDown	41324	1	Little	3
63.4483333333333	0	n/a	38070	KeyDown	41324	3	Middle	3
63.8033333333333	0	n/a	38283	KeyDown	41324	2	Ring	3
64.0783333333333	0	n/a	38448	KeyDown	41324	4	Index	3
64.4166666666667	0	n/a	38651	KeyDown	41324	4	Index	3
64.7750000000000	0	n/a	38866	KeyDown	41324	1	Little	3
65.2300000000000	0	n/a	39139	KeyDown	41324	3	Middle	3
65.5033333333333	0	n/a	39303	KeyDown	41324	2	Ring	3
65.7550000000000	0	n/a	39454	KeyDown	41324	4	Index	3
66.0216666666667	0	n/a	39614	KeyDown	41324	4	Index	3
66.3233333333333	0	n/a	39795	KeyDown	41324	1	Little	3
66.6850000000000	0	n/a	40012	KeyDown	41324	3	Middle	3
67.0266666666667	0	n/a	40217	KeyDown	41324	2	Ring	3
67.2616666666667	0	n/a	40358	KeyDown	41324	4	Index	3
67.5616666666667	0	n/a	40538	KeyDown	41324	4	Index	3
67.8483333333333	0	n/a	40710	KeyDown	41324	1	Little	3
68.2550000000000	0	n/a	40954	KeyDown	41324	3	Middle	3
68.5466666666667	0	n/a	41129	KeyDown	41324	2	Ring	3
68.7833333333333	0	n/a	41271	KeyDown	41324	4	Index	3
69.0533333333333	0	n/a	41433	KeyDown	41324	4	Index	3
69.3266666666667	0	n/a	41597	KeyDown	41324	1	Little	3
69.6816666666667	0	n/a	41810	KeyDown	41324	3	Middle	3
70.0516666666667	0	n/a	42032	KeyDown	41324	2	Ring	3
70.3183333333333	0	n/a	42192	StopPractice	41324	n/a	n/a	3
70.3200000000000	0	n/a	42193	StartRest	XXXXX	n/a	n/a	3
80.3533333333333	0	n/a	48213	StopRest	XXXXX	n/a	n/a	3
80.3550000000000	0	UPPT001	48214	StartPractice	41324	n/a	n/a	4
80.7333333333333	0	n/a	48441	KeyDown	41324	4	Index	4
80.9816666666667	0	n/a	48590	KeyDown	41324	1	Little	4
81.2466666666667	0	n/a	48749	KeyDown	41324	3	Middle	4
81.4916666666667	0	n/a	48896	KeyDown	41324	2	Ring	4
81.6983333333333	0	n/a	49020	KeyDown	41324	4	Index	4
81.9633333333333	0	n/a	49179	KeyDown	41324	4	Index	4
82.2133333333333	0	n/a	49329	KeyDown	41324	1	Little	4
82.7183333333333	0	n/a	49632	KeyDown	41324	3	Middle	4
82.9833333333333	0	n/a	49791	KeyDown	41324	2	Ring	4
83.2616666666667	0	n/a	49958	KeyDown	41324	4	Index	4
83.5366666666667	0	n/a	50123	KeyDown	41324	4	Index	4
83.7583333333333	0	n/a	50256	KeyDown	41324	1	Little	4
84.0500000000000	0	n/a	50431	KeyDown	41324	3	Middle	4
84.5166666666667	0	n/a	50711	KeyDown	41324	2	Ring	4
84.9683333333333	0	n/a	50982	KeyDown	41324	4	Index	4
85.2433333333333	0	n/a	51147	KeyDown	41324	4	Index	4
85.4633333333333	0	n/a	51279	KeyDown	41324	1	Little	4
85.8766666666667	0	n/a	51527	KeyDown	41324	3	Middle	4
86.1250000000000	0	n/a	51676	KeyDown	41324	2	Ring	4
86.3766666666667	0	n/a	51827	KeyDown	41324	4	Index	4
86.6583333333333	0	n/a	51996	KeyDown	41324	4	Index	4
86.8800000000000	0	n/a	52129	KeyDown	41324	1	Little	4
87.2016666666667	0	n/a	52322	KeyDown	41324	3	Middle	4
87.4766666666667	0	n/a	52487	KeyDown	41324	2	Ring	4
87.6966666666667	0	n/a	52619	KeyDown	41324	4	Index	4
87.9250000000000	0	n/a	52756	KeyDown	41324	4	Index	4
88.1766666666667	0	n/a	52907	KeyDown	41324	1	Little	4
89.1433333333333	0	n/a	53487	KeyDown	41324	3	Middle	4
89.3966666666667	0	n/a	53639	KeyDown	41324	2	Ring	4
89.6483333333333	0	n/a	53790	KeyDown	41324	4	Index	4
90.3933333333333	0	n/a	54237	StopPractice	41324	n/a	n/a	4
90.3950000000000	0	n/a	54238	StartRest	XXXXX	n/a	n/a	4
100.4283333333333	0	n/a	60258	StopRest	XXXXX	n/a	n/a	4
100.4300000000000	0	UPPT001	60259	StartPractice	41324	n/a	n/a	5
100.9550000000000	0	n/a	60574	KeyDown	41324	4	Index	5
101.3066666666667	0	n/a	60785	KeyDown	41324	1	Little	5
101.6283333333333	0	n/a	60978	KeyDown	41324	3	Middle	5
101.8866666666667	0	n/a	61133	KeyDown	41324	2	Ring	5
102.0866666666667	0	n/a	61253	KeyDown	41324	4	Index	5
102.4066666666667	0	n/a	61445	KeyDown	41324	4	Index	5
102.6483333333333	0	n/a	61590	KeyDown	41324	1	Little	5
102.9450000000000	0	n/a	61768	KeyDown	41324	3	Middle	5
103.2216666666667	0	n/a	61934	KeyDown	41324	2	Ring	5
103.4800000000000	0	n/a	62089	KeyDown	41324	4	Index	5
103.8033333333333	0	n/a	62283	KeyDown	41324	4	Index	5
104.0616666666667	0	n/a	62438	KeyDown	41324	1	Little	5
104.3366666666667	0	n/a	62603	KeyDown	41324	3	Middle	5
104.6266666666667	0	n/a	62777	KeyDown	41324	2	Ring	5
104.9083333333333	0	n/a	62946	KeyDown	41324	4	Index	5
105.2283333333333	0	n/a	63138	KeyDown	41324	4	Index	5
105.4866666666667	0	n/a	63293	KeyDown	41324	1	Little	5
105.8416666666667	0	n/a	63506	KeyDown	41324	3	Middle	5
106.1183333333333	0	n/a	63672	KeyDown	41324	2	Ring	5
106.3866666666667	0	n/a	63833	KeyDown	41324	4	Index	5
106.7350000000000	0	n/a	64042	KeyDown	41324	4	Index	5
106.9933333333333	0	n/a	64197	KeyDown	41324	1	Little	5
107.2866666666667	0	n/a	64373	KeyDown	41324	3	Middle	5
107.5633333333333	0	n/a	64539	KeyDown	41324	2	Ring	5
107.8066666666667	0	n/a	64685	KeyDown	41324	4	Index	5
108.1616666666667	0	n/a	64898	KeyDown	41324	4	Index	5
108.4183333333333	0	n/a	65052	KeyDown	41324	1	Little	5
108.8516666666667	0	n/a	65312	KeyDown	41324	3	Middle	5
109.1233333333333	0	n/a	65475	KeyDown	41324	2	Ring	5
109.3483333333333	0	n/a	65610	KeyDown	41324	4	Index	5
109.7100000000000	0	n/a	65827	KeyDown	41324	4	Index	5
109.9516666666667	0	n/a	65972	KeyDown	41324	1	Little	5
110.2483333333333	0	n/a	66150	KeyDown	41324	3	Middle	5
110.4683333333333	0	n/a	66282	StopPractice	41324	n/a	n/a	5
110.4700000000000	0	n/a	66283	StartRest	XXXXX	n/a	n/a	5
120.5033333333333	0	n/a	72303	StopRest	XXXXX	n/a	n/a	5
120.5050000000000	0	UPPT001	72304	StartPractice	41324	n/a	n/a	6
120.9616666666667	0	n/a	72578	KeyDown	41324	4	Index	6
121.1916666666667	0	n/a	72716	KeyDown	41324	1	Little	6
121.4333333333333	0	n/a	72861	KeyDown	41324	3	Middle	6
121.6700000000000	0	n/a	73003	KeyDown	41324	2	Ring	6
121.8766666666667	0	n/a	73127	KeyDown	41324	4	Index	6
122.1733333333333	0	n/a	73305	KeyDown	41324	4	Index	6
122.3733333333333	0	n/a	73425	KeyDown	41324	1	Little	6
122.5966666666667	0	n/a	73559	KeyDown	41324	3	Middle	6
122.8450000000000	0	n/a	73708	KeyDown	41324	2	Ring	6
123.0600000000000	0	n/a	73837	KeyDown	41324	4	Index	6
123.3433333333333	0	n/a	74007	KeyDown	41324	4	Index	6
123.5550000000000	0	n/a	74134	KeyDown	41324	1	Little	6
123.8800000000000	0	n/a	74329	KeyDown	41324	3	Middle	6
124.1233333333333	0	n/a	74475	KeyDown	41324	2	Ring	6
124.3200000000000	0	n/a	74593	KeyDown	41324	4	Index	6
124.5583333333333	0	n/a	74736	KeyDown	41324	4	Index	6
124.9350000000000	0	n/a	74962	KeyDown	41324	1	Little	6
125.2466666666667	0	n/a	75149	KeyDown	41324	3	Middle	6
125.4283333333333	0	n/a	75258	KeyDown	41324	2	Ring	6
125.6000000000000	0	n/a	75361	KeyDown	41324	4	Index	6
125.8600000000000	0	n/a	75517	KeyDown	41324	4	Index	6
126.5483333333333	0	n/a	75930	KeyDown	41324	1	Little	6
127.3683333333333	0	n/a	76422	KeyDown	41324	2	Ring	6
127.6150000000000	0	n/a	76570	KeyDown	41324	3	Middle	6
128.2783333333333	0	n/a	76968	KeyDown	41324	4	Index	6
128.5316666666667	0	n/a	77120	KeyDown	41324	1	Little	6
129.8250000000000	0	n/a	77896	KeyDown	41324	3	Middle	6
129.9966666666667	0	n/a	77999	KeyDown	41324	2	Ring	6
130.1833333333333	0	n/a	78111	KeyDown	41324	4	Index	6
130.5433333333334	0	n/a	78327	StopPractice	41324	n/a	n/a	6
130.5450000000000	0	n/a	78328	StartRest	XXXXX	n/a	n/a	6
140.5783333333333	0	n/a	84348	StopRest	XXXXX	n/a	n/a	6
140.5800000000000	0	UPPT001	84349	StartPractice	41324	n/a	n/a	7
141.0183333333333	0	n/a	84612	KeyDown	41324	4	Index	7
141.0683333333334	0	n/a	84642	KeyDown	41324	1	Little	7
142.5083333333334	0	n/a	85506	KeyDown	41324	1	Little	7
142.9016666666667	0	n/a	85742	KeyDown	41324	3	Middle	7
143.1633333333334	0	n/a	85899	KeyDown	41324	2	Ring	7
143.4050000000000	0	n/a	86044	KeyDown	41324	4	Index	7
143.7866666666667	0	n/a	86273	KeyDown	41324	4	Index	7
144.0400000000000	0	n/a	86425	KeyDown	41324	1	Little	7
144.4383333333333	0	n/a	86664	KeyDown	41324	3	Middle	7
144.7033333333333	0	n/a	86823	KeyDown	41324	2	Ring	7
144.9416666666667	0	n/a	86966	KeyDown	41324	4	Index	7
145.4016666666667	0	n/a	87242	KeyDown	41324	4	Index	7
145.7133333333333	0	n/a	87429	KeyDown	41324	1	Little	7
146.3416666666667	0	n/a	87806	KeyDown	41324	3	Middle	7
146.6116666666667	0	n/a	87968	KeyDown	41324	2	Ring	7
146.8316666666667	0	n/a	88100	KeyDown	41324	4	Index	7
147.1466666666667	0	n/a	88289	KeyDown	41324	4	Index	7
147.4100000000000	0	n/a	88447	KeyDown	41324	1	Little	7
147.6816666666667	0	n/a	88610	KeyDown	41324	3	Middle	7
147.9450000000000	0	n/a	88768	KeyDown	41324	2	Ring	7
148.1733333333333	0	n/a	88905	KeyDown	41324	4	Index	7
148.7233333333333	0	n/a	89235	KeyDown	41324	1	Little	7
149.3583333333333	0	n/a	89616	KeyDown	41324	3	Middle	7
149.6283333333333	0	n/a	89778	KeyDown	41324	2	Ring	7
149.9666666666667	0	n/a	89981	KeyDown	41324	4	Index	7
150.6183333333333	0	n/a	90372	StopPractice	41324	n/a	n/a	7
150.6200000000000	0	n/a	90373	StartRest	XXXXX	n/a	n/a	7
160.6516666666667	0	n/a	96392	StopRest	XXXXX	n/a	n/a	7
160.6533333333333	0	UPPT001	96393	StartPractice	41324	n/a	n/a	8
161.2066666666667	0	n/a	96725	KeyDown	41324	4	Index	8
161.4616666666667	0	n/a	96878	KeyDown	41324	1	Little	8
162.6233333333333	0	n/a	97575	KeyDown	41324	3	Middle	8
162.8500000000000	0	n/a	97711	KeyDown	41324	2	Ring	8
163.0950000000000	0	n/a	97858	KeyDown	41324	4	Index	8
163.2450000000000	0	n/a	97948	KeyDown	41324	4	Index	8
163.6200000000000	0	n/a	98173	KeyDown	41324	1	Little	8
163.8966666666667	0	n/a	98339	KeyDown	41324	2	Ring	8
166.2216666666667	0	n/a	99734	KeyDown	41324	3	Middle	8
166.9516666666667	0	n/a	100172	KeyDown	41324	4	Index	8
167.4450000000000	0	n/a	100468	KeyDown	41324	4	Index	8
168.0100000000000	0	n/a	100807	KeyDown	41324	1	Little	8
168.5466666666667	0	n/a	101129	KeyDown	41324	3	Middle	8
168.7816666666667	0	n/a	101270	KeyDown	41324	2	Ring	8
169.0500000000000	0	n/a	101431	KeyDown	41324	4	Index	8
169.5466666666667	0	n/a	101729	KeyDown	41324	4	Index	8
169.9716666666667	0	n/a	101984	KeyDown	41324	1	Little	8
170.4583333333333	0	n/a	102276	KeyDown	41324	3	Middle	8
170.6100000000000	0	n/a	102367	KeyDown	41324	2	Ring	8
170.6916666666667	0	n/a	102416	StopPractice	41324	n/a	n/a	8
170.6933333333334	0	n/a	102417	StartRest	XXXXX	n/a	n/a	8
180.7283333333334	0	n/a	108438	StopRest	XXXXX	n/a	n/a	8
180.7300000000000	0	UPPT001	108439	StartPractice	41324	n/a	n/a	9
181.0733333333334	0	n/a	108645	KeyDown	41324	4	Index	9
181.4183333333334	0	n/a	108852	KeyDown	41324	1	Little	9
181.8200000000000	0	n/a	109093	KeyDown	41324	3	Middle	9
182.1033333333334	0	n/a	109263	KeyDown	41324	2	Ring	9
182.3400000000000	0	n/a	109405	KeyDown	41324	4	Index	9
182.7500000000000	0	n/a	109651	KeyDown	41324	4	Index	9
183.0083333333334	0	n/a	109806	KeyDown	41324	1	Little	9
183.5133333333333	0	n/a	110109	KeyDown	41324	3	Middle	9
183.7600000000000	0	n/a	110257	KeyDown	41324	2	Ring	9
183.9883333333333	0	n/a	110394	KeyDown	41324	4	Index	9
184.4383333333333	0	n/a	110664	KeyDown	41324	4	Index	9
184.8583333333333	0	n/a	110916	KeyDown	41324	1	Little	9
185.2733333333333	0	n/a	111165	KeyDown	41324	3	Middle	9
185.4900000000000	0	n/a	111295	KeyDown	41324	2	Ring	9
185.7233333333334	0	n/a	111435	KeyDown	41324	4	Index	9
186.0800000000000	0	n/a	111649	KeyDown	41324	4	Index	9
186.3633333333333	0	n/a	111819	KeyDown	41324	1	Little	9
186.6466666666667	0	n/a	111989	KeyDown	41324	3	Middle	9
186.8666666666667	0	n/a	112121	KeyDown	41324	2	Ring	9
187.0466666666667	0	n/a	112229	KeyDown	41324	4	Index	9
187.3366666666667	0	n/a	112403	KeyDown	41324	4	Index	9
187.5866666666667	0	n/a	112553	KeyDown	41324	1	Little	9
188.0833333333333	0	n/a	112851	KeyDown	41324	3	Middle	9
188.2533333333334	0	n/a	112953	KeyDown	41324	2	Ring	9
188.4883333333333	0	n/a	113094	KeyDown	41324	4	Index	9
188.9066666666667	0	n/a	113345	KeyDown	41324	4	Index	9
189.2333333333333	0	n/a	113541	KeyDown	41324	1	Little	9
190.0233333333333	0	n/a	114015	KeyDown	41324	3	Middle	9
190.1566666666667	0	n/a	114095	KeyDown	41324	2	Ring	9
190.3966666666667	0	n/a	114239	KeyDown	41324	4	Index	9
190.7683333333333	0	n/a	114462	StopPractice	41324	n/a	n/a	9
190.7700000000000	0	n/a	114463	StartRest	XXXXX	n/a	n/a	9
200.8033333333333	0	n/a	120483	StopRest	XXXXX	n/a	n/a	9
200.8050000000000	0	UPPT001	120484	StartPractice	41324	n/a	n/a	10
201.3250000000000	0	n/a	120796	KeyDown	41324	4	Index	10
201.6133333333333	0	n/a	120969	KeyDown	41324	1	Little	10
201.9400000000000	0	n/a	121165	KeyDown	41324	3	Middle	10
202.1883333333333	0	n/a	121314	KeyDown	41324	2	Ring	10
202.3916666666667	0	n/a	121436	KeyDown	41324	4	Index	10
202.7566666666667	0	n/a	121655	KeyDown	41324	4	Index	10
203.0383333333334	0	n/a	121824	KeyDown	41324	1	Little	10
203.3033333333333	0	n/a	121983	KeyDown	41324	3	Middle	10
203.4666666666667	0	n/a	122081	KeyDown	41324	2	Ring	10
203.6666666666667	0	n/a	122201	KeyDown	41324	4	Index	10
204.0316666666667	0	n/a	122420	KeyDown	41324	4	Index	10
204.3116666666667	0	n/a	122588	KeyDown	41324	1	Little	10
204.5816666666667	0	n/a	122750	KeyDown	41324	3	Middle	10
204.7066666666667	0	n/a	122825	KeyDown	41324	2	Ring	10
204.9633333333333	0	n/a	122979	KeyDown	41324	4	Index	10
205.3050000000000	0	n/a	123184	KeyDown	41324	4	Index	10
206.0016666666667	0	n/a	123602	KeyDown	41324	1	Little	10
206.5166666666667	0	n/a	123911	KeyDown	41324	3	Middle	10
206.6383333333333	0	n/a	123984	KeyDown	41324	2	Ring	10
206.9316666666667	0	n/a	124160	KeyDown	41324	4	Index	10
207.5483333333333	0	n/a	124530	KeyDown	41324	1	Little	10
208.7483333333333	0	n/a	125250	KeyDown	41324	3	Middle	10
208.9233333333333	0	n/a	125355	KeyDown	41324	2	Ring	10
209.2683333333333	0	n/a	125562	KeyDown	41324	4	Index	10
209.7200000000000	0	n/a	125833	KeyDown	41324	4	Index	10
210.0566666666667	0	n/a	126035	KeyDown	41324	1	Little	10
210.4633333333333	0	n/a	126279	KeyDown	41324	3	Middle	10
210.6216666666667	0	n/a	126374	KeyDown	41324	2	Ring	10
210.8433333333333	0	n/a	126507	StopPractice	41324	n/a	n/a	10
210.8450000000000	0	n/a	126508	StartRest	XXXXX	n/a	n/a	10
220.8766666666667	0	n/a	132527	StopRest	XXXXX	n/a	n/a	10
220.8783333333334	0	UPPT001	132528	StartPractice	41324	n/a	n/a	11
221.2933333333334	0	n/a	132777	KeyDown	41324	4	Index	11
221.5783333333333	0	n/a	132948	KeyDown	41324	1	Little	11
221.8683333333333	0	n/a	133122	KeyDown	41324	3	Middle	11
222.1266666666667	0	n/a	133277	KeyDown	41324	2	Ring	11
222.3200000000000	0	n/a	133393	KeyDown	41324	4	Index	11
222.6500000000000	0	n/a	133591	KeyDown	41324	4	Index	11
222.9783333333334	0	n/a	133788	KeyDown	41324	1	Little	11
223.2333333333333	0	n/a	133941	KeyDown	41324	3	Middle	11
223.3666666666667	0	n/a	134021	KeyDown	41324	2	Ring	11
223.6000000000000	0	n/a	134161	KeyDown	41324	4	Index	11
223.9683333333333	0	n/a	134382	KeyDown	41324	4	Index	11
225.0716666666667	0	n/a	135044	KeyDown	41324	1	Little	11
225.5466666666667	0	n/a	135329	KeyDown	41324	3	Middle	11
225.6900000000000	0	n/a	135415	KeyDown	41324	2	Ring	11
226.0333333333334	0	n/a	135621	KeyDown	41324	4	Index	11
226.4066666666667	0	n/a	135845	KeyDown	41324	4	Index	11
226.8866666666667	0	n/a	136133	KeyDown	41324	1	Little	11
227.1850000000000	0	n/a	136312	KeyDown	41324	3	Middle	11
227.2700000000000	0	n/a	136363	KeyDown	41324	2	Ring	11
227.5250000000000	0	n/a	136516	KeyDown	41324	4	Index	11
227.8566666666667	0	n/a	136715	KeyDown	41324	4	Index	11
228.8400000000000	0	n/a	137305	KeyDown	41324	1	Little	11
229.1483333333333	0	n/a	137490	KeyDown	41324	3	Middle	11
229.2616666666667	0	n/a	137558	KeyDown	41324	2	Ring	11
229.4716666666667	0	n/a	137684	KeyDown	41324	4	Index	11
229.8283333333333	0	n/a	137898	KeyDown	41324	4	Index	11
230.6233333333333	0	n/a	138375	KeyDown	41324	2	Ring	11
230.9166666666667	0	n/a	138551	StopPractice	41324	n/a	n/a	11
230.9183333333334	0	n/a	138552	StartRest	XXXXX	n/a	n/a	11
240.9516666666667	0	n/a	144572	StopRest	XXXXX	n/a	n/a	11
240.9533333333333	0	UPPT001	144573	StartPractice	41324	n/a	n/a	12
241.3016666666667	0	n/a	144782	KeyDown	41324	4	Index	12
241.6933333333334	0	n/a	145017	KeyDown	41324	1	Little	12
242.1866666666667	0	n/a	145313	KeyDown	41324	3	Middle	12
242.2033333333333	0	n/a	145323	KeyDown	41324	2	Ring	12
242.7866666666667	0	n/a	145673	KeyDown	41324	4	Index	12
243.6416666666667	0	n/a	146186	KeyDown	41324	4	Index	12
244.0650000000000	0	n/a	146440	KeyDown	41324	1	Little	12
244.5616666666667	0	n/a	146738	KeyDown	41324	3	Middle	12
244.8183333333334	0	n/a	146892	KeyDown	41324	2	Ring	12
245.0183333333333	0	n/a	147012	KeyDown	41324	4	Index	12
245.4900000000000	0	n/a	147295	KeyDown	41324	4	Index	12
246.0700000000000	0	n/a	147643	KeyDown	41324	1	Little	12
246.5416666666667	0	n/a	147926	KeyDown	41324	3	Middle	12
246.7466666666667	0	n/a	148049	KeyDown	41324	2	Ring	12
246.9783333333334	0	n/a	148188	KeyDown	41324	4	Index	12
247.4250000000000	0	n/a	148456	KeyDown	41324	4	Index	12
247.8650000000000	0	n/a	148720	KeyDown	41324	1	Little	12
248.4016666666667	0	n/a	149042	KeyDown	41324	3	Middle	12
248.6233333333334	0	n/a	149175	KeyDown	41324	2	Ring	12
248.8500000000000	0	n/a	149311	KeyDown	41324	4	Index	12
249.2233333333334	0	n/a	149535	KeyDown	41324	4	Index	12
249.6366666666667	0	n/a	149783	KeyDown	41324	1	Little	12
250.0233333333333	0	n/a	150015	KeyDown	41324	3	Middle	12
250.2216666666667	0	n/a	150134	KeyDown	41324	2	Ring	12
250.4383333333334	0	n/a	150264	KeyDown	41324	4	Index	12
250.8116666666667	0	n/a	150488	KeyDown	41324	4	Index	12
250.9916666666667	0	n/a	150596	StopPractice	41324	n/a	n/a	12
250.9933333333333	0	n/a	150597	StartRest	XXXXX	n/a	n/a	12
261.0266666666667	0	n/a	156617	StopRest	XXXXX	n/a	n/a	12
261.0283333333334	0	UPPT001	156618	StartPractice	41324	n/a	n/a	13
261.5850000000000	0	n/a	156952	KeyDown	41324	4	Index	13
261.9283333333333	0	n/a	157158	KeyDown	41324	1	Little	13
262.2800000000000	0	n/a	157369	KeyDown	41324	3	Middle	13
262.8266666666667	0	n/a	157697	KeyDown	41324	2	Ring	13
263.1116666666667	0	n/a	157868	KeyDown	41324	4	Index	13
263.4716666666667	0	n/a	158084	KeyDown	41324	4	Index	13
264.4566666666667	0	n/a	158675	KeyDown	41324	1	Little	13
264.9066666666667	0	n/a	158945	KeyDown	41324	3	Middle	13
265.0600000000000	0	n/a	159037	KeyDown	41324	2	Ring	13
265.3416666666667	0	n/a	159206	KeyDown	41324	4	Index	13
265.7200000000000	0	n/a	159433	KeyDown	41324	4	Index	13
266.0566666666667	0	n/a	159635	KeyDown	41324	1	Little	13
266.6016666666667	0	n/a	159962	KeyDown	41324	3	Middle	13
266.7116666666667	0	n/a	160028	KeyDown	41324	2	Ring	13
266.9883333333333	0	n/a	160194	KeyDown	41324	4	Index	13
267.3350000000000	0	n/a	160402	KeyDown	41324	4	Index	13
267.6566666666667	0	n/a	160595	KeyDown	41324	1	Little	13
268.1816666666667	0	n/a	160910	KeyDown	41324	3	Middle	13
268.3000000000000	0	n/a	160981	KeyDown	41324	2	Ring	13
268.5516666666667	0	n/a	161132	KeyDown	41324	4	Index	13
268.9033333333334	0	n/a	161343	KeyDown	41324	4	Index	13
269.5450000000000	0	n/a	161728	KeyDown	41324	1	Little	13
270.5650000000000	0	n/a	162340	KeyDown	41324	3	Middle	13
270.7683333333334	0	n/a	162462	KeyDown	41324	2	Ring	13
271.0033333333333	0	n/a	162603	KeyDown	41324	4	Index	13
271.0666666666667	0	n/a	162641	StopPractice	41324	n/a	n/a	13
271.0683333333333	0	n/a	162642	StartRest	XXXXX	n/a	n/a	13
281.1033333333334	0	n/a	168663	StopRest	XXXXX	n/a	n/a	13
281.1050000000000	0	UPPT001	168664	StartPractice	41324	n/a	n/a	14
281.7716666666667	0	n/a	169064	KeyDown	41324	4	Index	14
282.0800000000000	0	n/a	169249	KeyDown	41324	1	Little	14
282.3283333333334	0	n/a	169398	KeyDown	41324	3	Middle	14
282.4816666666667	0	n/a	169490	KeyDown	41324	2	Ring	14
282.7700000000000	0	n/a	169663	KeyDown	41324	4	Index	14
283.1716666666667	0	n/a	169904	KeyDown	41324	4	Index	14
283.4783333333334	0	n/a	170088	KeyDown	41324	1	Little	14
284.0216666666667	0	n/a	170414	KeyDown	41324	3	Middle	14
284.1450000000000	0	n/a	170488	KeyDown	41324	2	Ring	14
284.4783333333334	0	n/a	170688	KeyDown	41324	4	Index	14
284.9016666666667	0	n/a	170942	KeyDown	41324	4	Index	14
285.2300000000000	0	n/a	171139	KeyDown	41324	1	Little	14
285.5400000000000	0	n/a	171325	KeyDown	41324	3	Middle	14
285.6700000000000	0	n/a	171403	KeyDown	41324	2	Ring	14
286.0433333333334	0	n/a	171627	KeyDown	41324	4	Index	14
286.5100000000000	0	n/a	171907	KeyDown	41324	4	Index	14
286.8466666666667	0	n/a	172109	KeyDown	41324	1	Little	14
287.2700000000000	0	n/a	172363	KeyDown	41324	3	Middle	14
287.3850000000000	0	n/a	172432	KeyDown	41324	2	Ring	14
287.7033333333334	0	n/a	172623	KeyDown	41324	4	Index	14
288.1050000000000	0	n/a	172864	KeyDown	41324	4	Index	14
288.5083333333333	0	n/a	173106	KeyDown	41324	1	Little	14
288.9433333333333	0	n/a	173367	KeyDown	41324	3	Middle	14
289.0483333333333	0	n/a	173430	KeyDown	41324	2	Ring	14
289.3616666666667	0	n/a	173618	KeyDown	41324	4	Index	14
289.7633333333334	0	n/a	173859	KeyDown	41324	4	Index	14
290.8600000000000	0	n/a	174517	KeyDown	41324	1	Little	14
291.1433333333334	0	n/a	174687	StopPractice	41324	n/a	n/a	14
291.1450000000000	0	n/a	174688	StartRest	XXXXX	n/a	n/a	14
301.1766666666667	0	n/a	180707	StopRest	XXXXX	n/a	n/a	14
301.1783333333333	0	UPPT001	180708	StartPractice	41324	n/a	n/a	15
301.6800000000000	0	n/a	181009	KeyDown	41324	4	Index	15
301.9333333333333	0	n/a	181161	KeyDown	41324	1	Little	15
302.2250000000000	0	n/a	181336	KeyDown	41324	3	Middle	15
302.3666666666667	0	n/a	181421	KeyDown	41324	2	Ring	15
302.5450000000000	0	n/a	181528	KeyDown	41324	4	Index	15
302.8916666666667	0	n/a	181736	KeyDown	41324	4	Index	15
303.1716666666667	0	n/a	181904	KeyDown	41324	1	Little	15
303.4883333333333	0	n/a	182094	KeyDown	41324	3	Middle	15
303.6116666666667	0	n/a	182168	KeyDown	41324	2	Ring	15
303.8333333333334	0	n/a	182301	KeyDown	41324	4	Index	15
304.1850000000000	0	n/a	182512	KeyDown	41324	4	Index	15
304.4600000000000	0	n/a	182677	KeyDown	41324	1	Little	15
304.7650000000000	0	n/a	182860	KeyDown	41324	3	Middle	15
304.8750000000000	0	n/a	182926	KeyDown	41324	2	Ring	15
305.0900000000000	0	n/a	183055	KeyDown	41324	4	Index	15
305.4216666666667	0	n/a	183254	KeyDown	41324	4	Index	15
305.6933333333333	0	n/a	183417	KeyDown	41324	1	Little	15
306.0650000000000	0	n/a	183640	KeyDown	41324	3	Middle	15
306.1716666666667	0	n/a	183704	KeyDown	41324	2	Ring	15
306.3916666666667	0	n/a	183836	KeyDown	41324	4	Index	15
306.7333333333333	0	n/a	184041	KeyDown	41324	4	Index	15
307.0150000000000	0	n/a	184210	KeyDown	41324	1	Little	15
307.3000000000000	0	n/a	184381	KeyDown	41324	3	Middle	15
307.3933333333334	0	n/a	184437	KeyDown	41324	2	Ring	15
307.6483333333334	0	n/a	184590	KeyDown	41324	4	Index	15
307.9683333333334	0	n/a	184782	KeyDown	41324	4	Index	15
308.2516666666667	0	n/a	184952	KeyDown	41324	1	Little	15
309.0150000000000	0	n/a	185410	KeyDown	41324	3	Middle	15
309.0866666666667	0	n/a	185453	KeyDown	41324	2	Ring	15
309.3366666666667	0	n/a	185603	KeyDown	41324	4	Index	15
309.6650000000000	0	n/a	185800	KeyDown	41324	4	Index	15
310.0250000000000	0	n/a	186016	KeyDown	41324	1	Little	15
310.4466666666667	0	n/a	186269	KeyDown	41324	3	Middle	15
310.5316666666667	0	n/a	186320	KeyDown	41324	2	Ring	15
310.7700000000000	0	n/a	186463	KeyDown	41324	4	Index	15
311.0933333333334	0	n/a	186657	KeyDown	41324	4	Index	15
311.2166666666667	0	n/a	186731	StopPractice	41324	n/a	n/a	15
311.2183333333334	0	n/a	186732	StartRest	XXXXX	n/a	n/a	15
321.2516666666667	0	n/a	192752	StopRest	XXXXX	n/a	n/a	15
321.2533333333333	0	UPPT001	192753	StartPractice	41324	n/a	n/a	16
321.7966666666667	0	n/a	193079	KeyDown	41324	4	Index	16
322.0766666666667	0	n/a	193247	KeyDown	41324	1	Little	16
322.3633333333333	0	n/a	193419	KeyDown	41324	3	Middle	16
322.4816666666667	0	n/a	193490	KeyDown	41324	2	Ring	16
322.7316666666667	0	n/a	193640	KeyDown	41324	4	Index	16
323.1216666666667	0	n/a	193874	KeyDown	41324	4	Index	16
323.4366666666667	0	n/a	194063	KeyDown	41324	1	Little	16
323.7383333333333	0	n/a	194244	KeyDown	41324	3	Middle	16
323.8600000000000	0	n/a	194317	KeyDown	41324	2	Ring	16
324.1650000000000	0	n/a	194500	KeyDown	41324	4	Index	16
324.5450000000000	0	n/a	194728	KeyDown	41324	4	Index	16
325.0616666666667	0	n/a	195038	KeyDown	41324	1	Little	16
325.3750000000000	0	n/a	195226	KeyDown	41324	3	Middle	16
325.4850000000000	0	n/a	195292	KeyDown	41324	2	Ring	16
325.7583333333334	0	n/a	195456	KeyDown	41324	4	Index	16
326.1016666666667	0	n/a	195662	KeyDown	41324	4	Index	16
326.4050000000000	0	n/a	195844	KeyDown	41324	1	Little	16
326.7133333333334	0	n/a	196029	KeyDown	41324	3	Middle	16
326.8416666666667	0	n/a	196106	KeyDown	41324	2	Ring	16
327.0966666666667	0	n/a	196259	KeyDown	41324	4	Index	16
327.4566666666667	0	n/a	196475	KeyDown	41324	4	Index	16
327.7733333333334	0	n/a	196665	KeyDown	41324	1	Little	16
328.1866666666667	0	n/a	196913	KeyDown	41324	3	Middle	16
328.2816666666667	0	n/a	196970	KeyDown	41324	2	Ring	16
328.5783333333334	0	n/a	197148	KeyDown	41324	4	Index	16
328.9416666666667	0	n/a	197366	KeyDown	41324	4	Index	16
329.2916666666667	0	n/a	197576	KeyDown	41324	1	Little	16
329.6800000000000	0	n/a	197809	KeyDown	41324	3	Middle	16
329.7866666666667	0	n/a	197873	KeyDown	41324	2	Ring	16
330.0550000000000	0	n/a	198034	KeyDown	41324	4	Index	16
330.4016666666667	0	n/a	198242	KeyDown	41324	4	Index	16
331.1066666666667	0	n/a	198665	KeyDown	41324	1	Little	16
331.2916666666667	0	n/a	198776	StopPractice	41324	n/a	n/a	16
331.2933333333334	0	n/a	198777	StartRest	XXXXX	n/a	n/a	16
341.3266666666667	0	n/a	204797	StopRest	XXXXX	n/a	n/a	16
341.3283333333334	0	UPPT001	204798	StartPractice	41324	n/a	n/a	17
341.8316666666667	0	n/a	205100	KeyDown	41324	4	Index	17
342.1333333333334	0	n/a	205281	KeyDown	41324	1	Little	17
342.4033333333334	0	n/a	205443	KeyDown	41324	3	Middle	17
342.4700000000000	0	n/a	205483	KeyDown	41324	2	Ring	17
342.7266666666667	0	n/a	205637	KeyDown	41324	4	Index	17
343.0700000000001	0	n/a	205843	KeyDown	41324	4	Index	17
343.3450000000000	0	n/a	206008	KeyDown	41324	1	Little	17
343.6133333333333	0	n/a	206169	KeyDown	41324	3	Middle	17
343.7350000000000	0	n/a	206242	KeyDown	41324	2	Ring	17
344.0250000000000	0	n/a	206416	KeyDown	41324	4	Index	17
344.3650000000000	0	n/a	206620	KeyDown	41324	4	Index	17
344.6800000000000	0	n/a	206809	KeyDown	41324	1	Little	17
345.0700000000001	0	n/a	207043	KeyDown	41324	3	Middle	17
345.1666666666667	0	n/a	207101	KeyDown	41324	2	Ring	17
345.4050000000000	0	n/a	207244	KeyDown	41324	4	Index	17
345.7550000000000	0	n/a	207454	KeyDown	41324	4	Index	17
346.0283333333334	0	n/a	207618	KeyDown	41324	1	Little	17
346.3216666666667	0	n/a	207794	KeyDown	41324	3	Middle	17
346.4216666666667	0	n/a	207854	KeyDown	41324	2	Ring	17
346.6883333333333	0	n/a	208014	KeyDown	41324	4	Index	17
347.0333333333334	0	n/a	208221	KeyDown	41324	4	Index	17
347.4616666666667	0	n/a	208478	KeyDown	41324	1	Little	17
347.8450000000000	0	n/a	208708	KeyDown	41324	3	Middle	17
347.9500000000000	0	n/a	208771	KeyDown	41324	2	Ring	17
348.1700000000000	0	n/a	208903	KeyDown	41324	4	Index	17
348.4983333333333	0	n/a	209100	KeyDown	41324	4	Index	17
348.8100000000000	0	n/a	209287	KeyDown	41324	1	Little	17
349.1300000000000	0	n/a	209479	KeyDown	41324	3	Middle	17
349.2066666666667	0	n/a	209525	KeyDown	41324	2	Ring	17
349.5000000000000	0	n/a	209701	KeyDown	41324	4	Index	17
349.8616666666667	0	n/a	209918	KeyDown	41324	4	Index	17
350.1800000000000	0	n/a	210109	KeyDown	41324	1	Little	17
350.5350000000000	0	n/a	210322	KeyDown	41324	3	Middle	17
350.6700000000000	0	n/a	210403	KeyDown	41324	2	Ring	17
350.8783333333333	0	n/a	210528	KeyDown	41324	4	Index	17
351.1683333333334	0	n/a	210702	KeyDown	41324	4	Index	17
351.3666666666667	0	n/a	210821	StopPractice	41324	n/a	n/a	17
351.3683333333333	0	n/a	210822	StartRest	XXXXX	n/a	n/a	17
361.4000000000000	0	n/a	216841	StopRest	XXXXX	n/a	n/a	17
361.4016666666667	0	UPPT001	216842	StartPractice	41324	n/a	n/a	18
362.1450000000000	0	n/a	217288	KeyDown	41324	1	Little	18
362.2783333333334	0	n/a	217368	KeyDown	41324	4	Index	18
362.9433333333334	0	n/a	217767	KeyDown	41324	3	Middle	18
363.0700000000001	0	n/a	217843	KeyDown	41324	2	Ring	18
363.2483333333333	0	n/a	217950	KeyDown	41324	4	Index	18
363.6133333333333	0	n/a	218169	KeyDown	41324	4	Index	18
363.9133333333334	0	n/a	218349	KeyDown	41324	1	Little	18
364.1733333333333	0	n/a	218505	KeyDown	41324	3	Middle	18
364.3133333333333	0	n/a	218589	KeyDown	41324	2	Ring	18
364.5050000000000	0	n/a	218704	KeyDown	41324	4	Index	18
364.8950000000000	0	n/a	218938	KeyDown	41324	4	Index	18
365.1866666666667	0	n/a	219113	KeyDown	41324	1	Little	18
365.4683333333334	0	n/a	219282	KeyDown	41324	3	Middle	18
365.5783333333334	0	n/a	219348	KeyDown	41324	2	Ring	18
365.7700000000000	0	n/a	219463	KeyDown	41324	4	Index	18
366.1483333333334	0	n/a	219690	KeyDown	41324	4	Index	18
366.4300000000000	0	n/a	219859	KeyDown	41324	1	Little	18
366.7250000000000	0	n/a	220036	KeyDown	41324	3	Middle	18
366.8350000000000	0	n/a	220102	KeyDown	41324	2	Ring	18
367.0216666666667	0	n/a	220214	KeyDown	41324	4	Index	18
367.3816666666667	0	n/a	220430	KeyDown	41324	4	Index	18
367.6683333333334	0	n/a	220602	KeyDown	41324	1	Little	18
367.9566666666667	0	n/a	220775	KeyDown	41324	3	Middle	18
368.0800000000000	0	n/a	220849	KeyDown	41324	2	Ring	18
368.2766666666667	0	n/a	220967	KeyDown	41324	4	Index	18
368.6316666666667	0	n/a	221180	KeyDown	41324	4	Index	18
368.9316666666667	0	n/a	221360	KeyDown	41324	1	Little	18
369.3233333333334	0	n/a	221595	KeyDown	41324	3	Middle	18
369.4550000000000	0	n/a	221674	KeyDown	41324	2	Ring	18
369.7066666666667	0	n/a	221825	KeyDown	41324	4	Index	18
370.0566666666667	0	n/a	222035	KeyDown	41324	4	Index	18
370.3783333333333	0	n/a	222228	KeyDown	41324	1	Little	18
370.6833333333333	0	n/a	222411	KeyDown	41324	3	Middle	18
370.8083333333333	0	n/a	222486	KeyDown	41324	2	Ring	18
370.9766666666667	0	n/a	222587	KeyDown	41324	4	Index	18
371.3433333333334	0	n/a	222807	KeyDown	41324	4	Index	18
371.4400000000000	0	n/a	222865	StopPractice	41324	n/a	n/a	18
371.4416666666667	0	n/a	222866	StartRest	XXXXX	n/a	n/a	18
381.4766666666667	0	n/a	228887	StopRest	XXXXX	n/a	n/a	18
381.4783333333334	0	UPPT001	228888	StartPractice	41324	n/a	n/a	19
381.9133333333334	0	n/a	229149	KeyDown	41324	4	Index	19
382.2216666666667	0	n/a	229334	KeyDown	41324	1	Little	19
382.4950000000000	0	n/a	229498	KeyDown	41324	3	Middle	19
382.6116666666667	0	n/a	229568	KeyDown	41324	2	Ring	19
382.8250000000000	0	n/a	229696	KeyDown	41324	4	Index	19
383.1866666666667	0	n/a	229913	KeyDown	41324	4	Index	19
383.4733333333334	0	n/a	230085	KeyDown	41324	1	Little	19
383.7500000000000	0	n/a	230251	KeyDown	41324	3	Middle	19
383.8666666666667	0	n/a	230321	KeyDown	41324	2	Ring	19
384.0866666666667	0	n/a	230453	KeyDown	41324	4	Index	19
384.4550000000000	0	n/a	230674	KeyDown	41324	4	Index	19
384.7666666666667	0	n/a	230861	KeyDown	41324	1	Little	19
385.0683333333334	0	n/a	231042	KeyDown	41324	3	Middle	19
385.1850000000000	0	n/a	231112	KeyDown	41324	2	Ring	19
385.4616666666667	0	n/a	231278	KeyDown	41324	4	Index	19
385.7800000000000	0	n/a	231469	KeyDown	41324	4	Index	19
386.0900000000000	0	n/a	231655	KeyDown	41324	1	Little	19
386.3800000000001	0	n/a	231829	KeyDown	41324	3	Middle	19
386.4900000000000	0	n/a	231895	KeyDown	41324	2	Ring	19
386.6866666666667	0	n/a	232013	KeyDown	41324	4	Index	19
387.0183333333334	0	n/a	232212	KeyDown	41324	4	Index	19
387.2833333333334	0	n/a	232371	KeyDown	41324	1	Little	19
387.5750000000000	0	n/a	232546	KeyDown	41324	3	Middle	19
387.6916666666667	0	n/a	232616	KeyDown	41324	2	Ring	19
387.9666666666667	0	n/a	232781	KeyDown	41324	4	Index	19
388.2266666666667	0	n/a	232937	KeyDown	41324	4	Index	19
388.4850000000000	0	n/a	233092	KeyDown	41324	1	Little	19
389.0616666666667	0	n/a	233438	KeyDown	41324	3	Middle	19
389.2216666666667	0	n/a	233534	KeyDown	41324	2	Ring	19
389.4900000000000	0	n/a	233695	KeyDown	41324	4	Index	19
389.7350000000000	0	n/a	233842	KeyDown	41324	4	Index	19
390.0216666666667	0	n/a	234014	KeyDown	41324	1	Little	19
390.2816666666667	0	n/a	234170	KeyDown	41324	3	Middle	19
390.3900000000000	0	n/a	234235	KeyDown	41324	2	Ring	19
390.5666666666667	0	n/a	234341	KeyDown	41324	4	Index	19
391.0466666666667	0	n/a	234629	KeyDown	41324	4	Index	19
391.3283333333334	0	n/a	234798	KeyDown	41324	1	Little	19
391.5166666666667	0	n/a	234911	StopPractice	41324	n/a	n/a	19
391.5183333333334	0	n/a	234912	StartRest	XXXXX	n/a	n/a	19
401.5516666666667	0	n/a	240932	StopRest	XXXXX	n/a	n/a	19
401.5533333333333	0	UPPT001	240933	StartPractice	41324	n/a	n/a	20
402.0850000000000	0	n/a	241252	KeyDown	41324	4	Index	20
402.3766666666667	0	n/a	241427	KeyDown	41324	1	Little	20
402.6733333333333	0	n/a	241605	KeyDown	41324	2	Ring	20
402.7716666666667	0	n/a	241664	KeyDown	41324	3	Middle	20
403.1916666666667	0	n/a	241916	KeyDown	41324	4	Index	20
403.5566666666667	0	n/a	242135	KeyDown	41324	4	Index	20
403.8400000000000	0	n/a	242305	KeyDown	41324	1	Little	20
404.1100000000000	0	n/a	242467	KeyDown	41324	3	Middle	20
404.2366666666667	0	n/a	242543	KeyDown	41324	2	Ring	20
404.5050000000001	0	n/a	242704	KeyDown	41324	4	Index	20
404.8700000000000	0	n/a	242923	KeyDown	41324	4	Index	20
405.1616666666667	0	n/a	243098	KeyDown	41324	1	Little	20
405.4316666666667	0	n/a	243260	KeyDown	41324	3	Middle	20
405.5466666666667	0	n/a	243329	KeyDown	41324	2	Ring	20
405.8150000000000	0	n/a	243490	KeyDown	41324	4	Index	20
406.1183333333333	0	n/a	243672	KeyDown	41324	4	Index	20
406.3950000000000	0	n/a	243838	KeyDown	41324	1	Little	20
406.6816666666667	0	n/a	244010	KeyDown	41324	3	Middle	20
406.7933333333334	0	n/a	244077	KeyDown	41324	2	Ring	20
406.9950000000000	0	n/a	244198	KeyDown	41324	4	Index	20
407.3300000000000	0	n/a	244399	KeyDown	41324	4	Index	20
407.6116666666667	0	n/a	244568	KeyDown	41324	1	Little	20
407.9483333333334	0	n/a	244770	KeyDown	41324	3	Middle	20
408.0750000000000	0	n/a	244846	KeyDown	41324	2	Ring	20
408.3750000000000	0	n/a	245026	KeyDown	41324	4	Index	20
408.6650000000000	0	n/a	245200	KeyDown	41324	4	Index	20
408.9283333333333	0	n/a	245358	KeyDown	41324	1	Little	20
409.4066666666667	0	n/a	245645	KeyDown	41324	3	Middle	20
409.5066666666667	0	n/a	245705	KeyDown	41324	2	Ring	20
409.7500000000000	0	n/a	245851	KeyDown	41324	4	Index	20
410.0566666666667	0	n/a	246035	KeyDown	41324	4	Index	20
410.3350000000000	0	n/a	246202	KeyDown	41324	1	Little	20
410.6083333333333	0	n/a	246366	KeyDown	41324	3	Middle	20
410.7150000000000	0	n/a	246430	KeyDown	41324	2	Ring	20
410.9616666666667	0	n/a	246578	KeyDown	41324	4	Index	20
411.2733333333334	0	n/a	246765	KeyDown	41324	4	Index	20
411.5366666666667	0	n/a	246923	KeyDown	41324	1	Little	20
411.5916666666667	0	n/a	246956	StopPractice	41324	n/a	n/a	20
411.5933333333334	0	n/a	246957	StartRest	XXXXX	n/a	n/a	20
421.6250000000000	0	n/a	252976	StopRest	XXXXX	n/a	n/a	20
421.6266666666667	0	UPPT001	252977	StartPractice	41324	n/a	n/a	21
421.9716666666667	0	n/a	253184	KeyDown	41324	4	Index	21
422.2466666666667	0	n/a	253349	KeyDown	41324	1	Little	21
422.5333333333334	0	n/a	253521	KeyDown	41324	3	Middle	21
422.6183333333333	0	n/a	253572	KeyDown	41324	2	Ring	21
422.8233333333334	0	n/a	253695	KeyDown	41324	4	Index	21
423.1450000000000	0	n/a	253888	KeyDown	41324	4	Index	21
423.4133333333334	0	n/a	254049	KeyDown	41324	1	Little	21
423.6983333333334	0	n/a	254220	KeyDown	41324	3	Middle	21
423.8200000000001	0	n/a	254293	KeyDown	41324	2	Ring	21
424.0500000000000	0	n/a	254431	KeyDown	41324	4	Index	21
424.3550000000000	0	n/a	254614	KeyDown	41324	4	Index	21
424.6733333333333	0	n/a	254805	KeyDown	41324	1	Little	21
425.1683333333334	0	n/a	255102	KeyDown	41324	3	Middle	21
425.2733333333334	0	n/a	255165	KeyDown	41324	2	Ring	21
425.5116666666667	0	n/a	255308	KeyDown	41324	4	Index	21
425.8833333333334	0	n/a	255531	KeyDown	41324	4	Index	21
426.1633333333334	0	n/a	255699	KeyDown	41324	1	Little	21
426.4950000000000	0	n/a	255898	KeyDown	41324	3	Middle	21
426.5983333333334	0	n/a	255960	KeyDown	41324	2	Ring	21
426.8750000000000	0	n/a	256126	KeyDown	41324	4	Index	21
427.2033333333334	0	n/a	256323	KeyDown	41324	4	Index	21
427.5000000000000	0	n/a	256501	KeyDown	41324	1	Little	21
428.5533333333333	0	n/a	257133	KeyDown	41324	2	Ring	21
429.0516666666667	0	n/a	257432	KeyDown	41324	4	Index	21
429.4733333333334	0	n/a	257685	KeyDown	41324	4	Index	21
430.0050000000001	0	n/a	258004	KeyDown	41324	1	Little	21
430.4650000000000	0	n/a	258280	KeyDown	41324	3	Middle	21
430.5633333333333	0	n/a	258339	KeyDown	41324	2	Ring	21
430.8733333333333	0	n/a	258525	KeyDown	41324	4	Index	21
431.1916666666667	0	n/a	258716	KeyDown	41324	4	Index	21
431.4216666666667	0	n/a	258854	KeyDown	41324	1	Little	21
431.6650000000000	0	n/a	259000	StopPractice	41324	n/a	n/a	21
431.6666666666667	0	n/a	259001	StartRest	XXXXX	n/a	n/a	21
441.7000000000000	0	n/a	265021	StopRest	XXXXX	n/a	n/a	21
441.7016666666667	0	UPPT001	265022	StartPractice	41324	n/a	n/a	22
442.2233333333334	0	n/a	265335	KeyDown	41324	4	Index	22
442.4366666666667	0	n/a	265463	KeyDown	41324	1	Little	22
442.7183333333334	0	n/a	265632	KeyDown	41324	3	Middle	22
442.8333333333334	0	n/a	265701	KeyDown	41324	2	Ring	22
443.0600000000000	0	n/a	265837	KeyDown	41324	4	Index	22
443.4333333333333	0	n/a	266061	KeyDown	41324	4	Index	22
443.6983333333334	0	n/a	266220	KeyDown	41324	1	Little	22
443.9983333333333	0	n/a	266400	KeyDown	41324	3	Middle	22
444.0950000000000	0	n/a	266458	KeyDown	41324	2	Ring	22
444.3150000000001	0	n/a	266590	KeyDown	41324	4	Index	22
444.7233333333334	0	n/a	266835	KeyDown	41324	4	Index	22
445.0066666666667	0	n/a	267005	KeyDown	41324	1	Little	22
445.4550000000000	0	n/a	267274	KeyDown	41324	3	Middle	22
445.5900000000000	0	n/a	267355	KeyDown	41324	2	Ring	22
445.8233333333334	0	n/a	267495	KeyDown	41324	4	Index	22
446.1083333333333	0	n/a	267666	KeyDown	41324	4	Index	22
446.4000000000000	0	n/a	267841	KeyDown	41324	1	Little	22
446.7533333333334	0	n/a	268053	KeyDown	41324	3	Middle	22
446.8950000000000	0	n/a	268138	KeyDown	41324	2	Ring	22
447.1100000000000	0	n/a	268267	KeyDown	41324	4	Index	22
447.4350000000000	0	n/a	268462	KeyDown	41324	4	Index	22
447.6883333333334	0	n/a	268614	KeyDown	41324	1	Little	22
448.1400000000000	0	n/a	268885	KeyDown	41324	3	Middle	22
448.2666666666667	0	n/a	268961	KeyDown	41324	2	Ring	22
448.5300000000000	0	n/a	269119	KeyDown	41324	4	Index	22
448.8583333333333	0	n/a	269316	KeyDown	41324	4	Index	22
449.1700000000000	0	n/a	269503	KeyDown	41324	1	Little	22
449.9133333333334	0	n/a	269949	KeyDown	41324	3	Middle	22
450.0183333333334	0	n/a	270012	KeyDown	41324	2	Ring	22
450.3033333333333	0	n/a	270183	KeyDown	41324	4	Index	22
450.9716666666667	0	n/a	270584	KeyDown	41324	1	Little	22
451.7400000000000	0	n/a	271045	StopPractice	41324	n/a	n/a	22
451.7416666666667	0	n/a	271046	StartRest	XXXXX	n/a	n/a	22
461.7750000000000	0	n/a	277066	StopRest	XXXXX	n/a	n/a	22
461.7766666666667	0	UPPT001	277067	StartPractice	41324	n/a	n/a	23
462.2866666666667	0	n/a	277373	KeyDown	41324	4	Index	23
462.6566666666667	0	n/a	277595	KeyDown	41324	1	Little	23
463.0350000000000	0	n/a	277822	KeyDown	41324	3	Middle	23
463.1583333333334	0	n/a	277896	KeyDown	41324	2	Ring	23
463.4200000000000	0	n/a	278053	KeyDown	41324	4	Index	23
463.7700000000000	0	n/a	278263	KeyDown	41324	4	Index	23
464.0716666666667	0	n/a	278444	KeyDown	41324	1	Little	23
464.3633333333333	0	n/a	278619	KeyDown	41324	3	Middle	23
464.4650000000000	0	n/a	278680	KeyDown	41324	2	Ring	23
464.7550000000001	0	n/a	278854	KeyDown	41324	4	Index	23
465.1483333333334	0	n/a	279090	KeyDown	41324	4	Index	23
465.4783333333334	0	n/a	279288	KeyDown	41324	1	Little	23
465.8000000000000	0	n/a	279481	KeyDown	41324	3	Middle	23
465.9333333333333	0	n/a	279561	KeyDown	41324	2	Ring	23
466.2050000000000	0	n/a	279724	KeyDown	41324	4	Index	23
466.6250000000001	0	n/a	279976	KeyDown	41324	4	Index	23
467.1900000000001	0	n/a	280315	KeyDown	41324	1	Little	23
467.4700000000000	0	n/a	280483	KeyDown	41324	3	Middle	23
467.5933333333334	0	n/a	280557	KeyDown	41324	2	Ring	23
467.8950000000000	0	n/a	280738	KeyDown	41324	4	Index	23
468.2633333333334	0	n/a	280959	KeyDown	41324	4	Index	23
468.5783333333334	0	n/a	281148	KeyDown	41324	1	Little	23
468.8733333333334	0	n/a	281325	KeyDown	41324	3	Middle	23
469.0166666666667	0	n/a	281411	KeyDown	41324	2	Ring	23
469.2616666666667	0	n/a	281558	KeyDown	41324	4	Index	23
469.6133333333333	0	n/a	281769	KeyDown	41324	4	Index	23
469.8633333333333	0	n/a	281919	KeyDown	41324	1	Little	23
470.2283333333334	0	n/a	282138	KeyDown	41324	3	Middle	23
470.3533333333334	0	n/a	282213	KeyDown	41324	2	Ring	23
470.6183333333333	0	n/a	282372	KeyDown	41324	4	Index	23
471.0133333333334	0	n/a	282609	KeyDown	41324	4	Index	23
471.3250000000000	0	n/a	282796	KeyDown	41324	1	Little	23
471.8150000000001	0	n/a	283090	StopPractice	41324	n/a	n/a	23
471.8166666666667	0	n/a	283091	StartRest	XXXXX	n/a	n/a	23
481.8500000000000	0	n/a	289111	StopRest	XXXXX	n/a	n/a	23
481.8516666666667	0	UPPT001	289112	StartPractice	41324	n/a	n/a	24
482.1983333333334	0	n/a	289320	KeyDown	41324	4	Index	24
482.6633333333334	0	n/a	289599	KeyDown	41324	1	Little	24
483.0766666666667	0	n/a	289847	KeyDown	41324	3	Middle	24
483.2000000000000	0	n/a	289921	KeyDown	41324	2	Ring	24
483.6950000000001	0	n/a	290218	KeyDown	41324	4	Index	24
484.1233333333334	0	n/a	290475	KeyDown	41324	4	Index	24
484.6350000000000	0	n/a	290782	KeyDown	41324	1	Little	24
484.9283333333333	0	n/a	290958	KeyDown	41324	3	Middle	24
485.0433333333334	0	n/a	291027	KeyDown	41324	2	Ring	24
485.3383333333334	0	n/a	291204	KeyDown	41324	4	Index	24
485.7000000000000	0	n/a	291421	KeyDown	41324	4	Index	24
486.0250000000000	0	n/a	291616	KeyDown	41324	1	Little	24
486.2650000000000	0	n/a	291760	KeyDown	41324	3	Middle	24
486.4000000000000	0	n/a	291841	KeyDown	41324	2	Ring	24
486.6583333333334	0	n/a	291996	KeyDown	41324	4	Index	24
487.0250000000000	0	n/a	292216	KeyDown	41324	4	Index	24
487.3733333333334	0	n/a	292425	KeyDown	41324	1	Little	24
487.6616666666667	0	n/a	292598	KeyDown	41324	3	Middle	24
487.8283333333334	0	n/a	292698	KeyDown	41324	2	Ring	24
488.1250000000001	0	n/a	292876	KeyDown	41324	4	Index	24
488.4433333333334	0	n/a	293067	KeyDown	41324	4	Index	24
488.7483333333334	0	n/a	293250	KeyDown	41324	1	Little	24
489.0733333333334	0	n/a	293445	KeyDown	41324	3	Middle	24
489.1850000000001	0	n/a	293512	KeyDown	41324	2	Ring	24
489.7933333333334	0	n/a	293877	KeyDown	41324	4	Index	24
490.1266666666667	0	n/a	294077	KeyDown	41324	4	Index	24
490.4600000000000	0	n/a	294277	KeyDown	41324	1	Little	24
491.1266666666667	0	n/a	294677	KeyDown	41324	3	Middle	24
491.2300000000000	0	n/a	294739	KeyDown	41324	2	Ring	24
491.5083333333334	0	n/a	294906	KeyDown	41324	4	Index	24
491.8183333333334	0	n/a	295092	KeyDown	41324	4	Index	24
491.8900000000000	0	n/a	295135	StopPractice	41324	n/a	n/a	24
491.8916666666667	0	n/a	295136	StartRest	XXXXX	n/a	n/a	24
501.9250000000000	0	n/a	301156	StopRest	XXXXX	n/a	n/a	24
501.9266666666667	0	UPPT001	301157	StartPractice	41324	n/a	n/a	25
502.4366666666667	0	n/a	301463	KeyDown	41324	4	Index	25
502.7483333333334	0	n/a	301650	KeyDown	41324	1	Little	25
503.0216666666667	0	n/a	301814	KeyDown	41324	3	Middle	25
503.1483333333334	0	n/a	301890	KeyDown	41324	2	Ring	25
503.3883333333334	0	n/a	302034	KeyDown	41324	4	Index	25
503.7583333333334	0	n/a	302256	KeyDown	41324	4	Index	25
504.0500000000000	0	n/a	302431	KeyDown	41324	1	Little	25
504.3183333333334	0	n/a	302592	KeyDown	41324	3	Middle	25
504.4433333333334	0	n/a	302667	KeyDown	41324	2	Ring	25
504.7383333333333	0	n/a	302844	KeyDown	41324	4	Index	25
505.0933333333334	0	n/a	303057	KeyDown	41324	4	Index	25
505.3866666666667	0	n/a	303233	KeyDown	41324	1	Little	25
505.6933333333334	0	n/a	303417	KeyDown	41324	3	Middle	25
505.7950000000000	0	n/a	303478	KeyDown	41324	2	Ring	25
506.0433333333334	0	n/a	303627	KeyDown	41324	4	Index	25
506.3783333333334	0	n/a	303828	KeyDown	41324	4	Index	25
506.7000000000000	0	n/a	304021	KeyDown	41324	1	Little	25
507.0933333333334	0	n/a	304257	KeyDown	41324	3	Middle	25
507.1750000000000	0	n/a	304306	KeyDown	41324	2	Ring	25
507.4450000000001	0	n/a	304468	KeyDown	41324	4	Index	25
507.7816666666667	0	n/a	304670	KeyDown	41324	4	Index	25
508.0783333333334	0	n/a	304848	KeyDown	41324	1	Little	25
508.4900000000000	0	n/a	305095	KeyDown	41324	3	Middle	25
508.6033333333334	0	n/a	305163	KeyDown	41324	2	Ring	25
508.8933333333334	0	n/a	305337	KeyDown	41324	4	Index	25
509.2150000000000	0	n/a	305530	KeyDown	41324	4	Index	25
509.5300000000000	0	n/a	305719	KeyDown	41324	1	Little	25
509.8533333333334	0	n/a	305913	KeyDown	41324	3	Middle	25
509.9650000000000	0	n/a	305980	KeyDown	41324	2	Ring	25
510.2150000000000	0	n/a	306130	KeyDown	41324	4	Index	25
510.5433333333334	0	n/a	306327	KeyDown	41324	4	Index	25
510.8450000000000	0	n/a	306508	KeyDown	41324	1	Little	25
511.1500000000000	0	n/a	306691	KeyDown	41324	3	Middle	25
511.2450000000000	0	n/a	306748	KeyDown	41324	2	Ring	25
511.5200000000000	0	n/a	306913	KeyDown	41324	4	Index	25
511.8600000000000	0	n/a	307117	KeyDown	41324	4	Index	25
511.9650000000000	0	n/a	307180	StopPractice	41324	n/a	n/a	25
511.9666666666667	0	n/a	307181	StartRest	XXXXX	n/a	n/a	25
522.0000000000000	0	n/a	313201	StopRest	XXXXX	n/a	n/a	25
522.0016666666667	0	UPPT001	313202	StartPractice	41324	n/a	n/a	26
522.4100000000001	0	n/a	313447	KeyDown	41324	4	Index	26
522.6850000000001	0	n/a	313612	KeyDown	41324	1	Little	26
522.9566666666667	0	n/a	313775	KeyDown	41324	3	Middle	26
523.0950000000000	0	n/a	313858	KeyDown	41324	2	Ring	26
523.3200000000001	0	n/a	313993	KeyDown	41324	4	Index	26
523.6700000000001	0	n/a	314203	KeyDown	41324	4	Index	26
523.9366666666667	0	n/a	314363	KeyDown	41324	1	Little	26
524.1733333333334	0	n/a	314505	KeyDown	41324	3	Middle	26
524.3050000000001	0	n/a	314584	KeyDown	41324	2	Ring	26
524.5716666666667	0	n/a	314744	KeyDown	41324	4	Index	26
524.9366666666667	0	n/a	314963	KeyDown	41324	4	Index	26
525.2283333333334	0	n/a	315138	KeyDown	41324	1	Little	26
525.5016666666667	0	n/a	315302	KeyDown	41324	3	Middle	26
525.6183333333333	0	n/a	315372	KeyDown	41324	2	Ring	26
525.8800000000000	0	n/a	315529	KeyDown	41324	4	Index	26
526.1883333333334	0	n/a	315714	KeyDown	41324	4	Index	26
526.4683333333334	0	n/a	315882	KeyDown	41324	1	Little	26
526.7650000000000	0	n/a	316060	KeyDown	41324	3	Middle	26
526.9033333333334	0	n/a	316143	KeyDown	41324	2	Ring	26
527.1500000000000	0	n/a	316291	KeyDown	41324	4	Index	26
527.4683333333334	0	n/a	316482	KeyDown	41324	4	Index	26
527.7483333333333	0	n/a	316650	KeyDown	41324	1	Little	26
528.0266666666668	0	n/a	316817	KeyDown	41324	3	Middle	26
528.1433333333333	0	n/a	316887	KeyDown	41324	2	Ring	26
528.3950000000000	0	n/a	317038	KeyDown	41324	4	Index	26
528.7350000000000	0	n/a	317242	KeyDown	41324	4	Index	26
529.0250000000000	0	n/a	317416	KeyDown	41324	1	Little	26
529.3150000000001	0	n/a	317590	KeyDown	41324	3	Middle	26
529.4133333333334	0	n/a	317649	KeyDown	41324	2	Ring	26
529.6750000000001	0	n/a	317806	KeyDown	41324	4	Index	26
530.0050000000000	0	n/a	318004	KeyDown	41324	4	Index	26
530.2850000000001	0	n/a	318172	KeyDown	41324	1	Little	26
530.8150000000001	0	n/a	318490	KeyDown	41324	3	Middle	26
530.9050000000001	0	n/a	318544	KeyDown	41324	2	Ring	26
531.1450000000000	0	n/a	318688	KeyDown	41324	4	Index	26
531.4533333333334	0	n/a	318873	KeyDown	41324	4	Index	26
531.7716666666666	0	n/a	319064	KeyDown	41324	1	Little	26
532.0400000000001	0	n/a	319225	StopPractice	41324	n/a	n/a	26
532.0416666666667	0	n/a	319226	StartRest	XXXXX	n/a	n/a	26
542.0750000000000	0	n/a	325246	StopRest	XXXXX	n/a	n/a	26
542.0766666666667	0	UPPT001	325247	StartPractice	41324	n/a	n/a	27
542.4150000000001	0	n/a	325450	KeyDown	41324	4	Index	27
542.7033333333334	0	n/a	325623	KeyDown	41324	1	Little	27
543.1566666666668	0	n/a	325895	KeyDown	41324	3	Middle	27
543.3200000000001	0	n/a	325993	KeyDown	41324	2	Ring	27
543.6150000000000	0	n/a	326170	KeyDown	41324	4	Index	27
544.0100000000000	0	n/a	326407	KeyDown	41324	4	Index	27
544.3033333333334	0	n/a	326583	KeyDown	41324	1	Little	27
544.5750000000000	0	n/a	326746	KeyDown	41324	3	Middle	27
544.7216666666667	0	n/a	326834	KeyDown	41324	2	Ring	27
545.0050000000000	0	n/a	327004	KeyDown	41324	4	Index	27
545.3050000000001	0	n/a	327184	KeyDown	41324	4	Index	27
545.5816666666667	0	n/a	327350	KeyDown	41324	1	Little	27
545.8450000000000	0	n/a	327508	KeyDown	41324	3	Middle	27
545.9650000000000	0	n/a	327580	KeyDown	41324	2	Ring	27
546.2400000000000	0	n/a	327745	KeyDown	41324	4	Index	27
546.5283333333334	0	n/a	327918	KeyDown	41324	4	Index	27
546.8116666666667	0	n/a	328088	KeyDown	41324	1	Little	27
547.0766666666667	0	n/a	328247	KeyDown	41324	3	Middle	27
547.1683333333334	0	n/a	328302	KeyDown	41324	2	Ring	27
547.4200000000001	0	n/a	328453	KeyDown	41324	4	Index	27
547.7183333333334	0	n/a	328632	KeyDown	41324	4	Index	27
547.9850000000000	0	n/a	328792	KeyDown	41324	1	Little	27
548.2900000000001	0	n/a	328975	KeyDown	41324	3	Middle	27
548.3900000000000	0	n/a	329035	KeyDown	41324	2	Ring	27
548.6800000000001	0	n/a	329209	KeyDown	41324	4	Index	27
548.9883333333333	0	n/a	329394	KeyDown	41324	4	Index	27
549.2633333333333	0	n/a	329559	KeyDown	41324	1	Little	27
549.5533333333334	0	n/a	329733	KeyDown	41324	3	Middle	27
549.6783333333334	0	n/a	329808	KeyDown	41324	2	Ring	27
549.9833333333333	0	n/a	329991	KeyDown	41324	4	Index	27
550.2933333333334	0	n/a	330177	KeyDown	41324	4	Index	27
550.5750000000000	0	n/a	330346	KeyDown	41324	1	Little	27
551.0933333333334	0	n/a	330657	KeyDown	41324	3	Middle	27
551.2333333333333	0	n/a	330741	KeyDown	41324	2	Ring	27
551.5200000000000	0	n/a	330913	KeyDown	41324	4	Index	27
551.8066666666667	0	n/a	331085	KeyDown	41324	4	Index	27
552.0883333333334	0	n/a	331254	KeyDown	41324	1	Little	27
552.1150000000000	0	n/a	331270	StopPractice	41324	n/a	n/a	27
552.1166666666667	0	n/a	331271	StartRest	XXXXX	n/a	n/a	27
562.1500000000001	0	n/a	337291	StopRest	XXXXX	n/a	n/a	27
562.1516666666668	0	UPPT001	337292	StartPractice	41324	n/a	n/a	28
562.5566666666667	0	n/a	337535	KeyDown	41324	4	Index	28
562.8400000000000	0	n/a	337705	KeyDown	41324	1	Little	28
563.1283333333333	0	n/a	337878	KeyDown	41324	3	Middle	28
563.2600000000000	0	n/a	337957	KeyDown	41324	2	Ring	28
563.5116666666667	0	n/a	338108	KeyDown	41324	4	Index	28
563.8833333333333	0	n/a	338331	KeyDown	41324	4	Index	28
564.1683333333334	0	n/a	338502	KeyDown	41324	1	Little	28
564.4400000000001	0	n/a	338665	KeyDown	41324	3	Middle	28
564.5816666666667	0	n/a	338750	KeyDown	41324	2	Ring	28
564.8933333333333	0	n/a	338937	KeyDown	41324	4	Index	28
565.2300000000000	0	n/a	339139	KeyDown	41324	4	Index	28
565.5333333333334	0	n/a	339321	KeyDown	41324	1	Little	28
565.8500000000000	0	n/a	339511	KeyDown	41324	3	Middle	28
565.9816666666667	0	n/a	339590	KeyDown	41324	2	Ring	28
566.2633333333333	0	n/a	339759	KeyDown	41324	4	Index	28
566.6033333333334	0	n/a	339963	KeyDown	41324	4	Index	28
566.9100000000001	0	n/a	340147	KeyDown	41324	1	Little	28
567.2066666666667	0	n/a	340325	KeyDown	41324	3	Middle	28
567.3050000000001	0	n/a	340384	KeyDown	41324	2	Ring	28
567.5850000000000	0	n/a	340552	KeyDown	41324	4	Index	28
567.9333333333334	0	n/a	340761	KeyDown	41324	4	Index	28
568.2183333333334	0	n/a	340932	KeyDown	41324	1	Little	28
568.5866666666667	0	n/a	341153	KeyDown	41324	3	Middle	28
568.6850000000001	0	n/a	341212	KeyDown	41324	2	Ring	28
568.9550000000000	0	n/a	341374	KeyDown	41324	4	Index	28
569.2850000000001	0	n/a	341572	KeyDown	41324	4	Index	28
569.5816666666667	0	n/a	341750	KeyDown	41324	1	Little	28
570.2466666666667	0	n/a	342149	KeyDown	41324	3	Middle	28
570.3483333333334	0	n/a	342210	KeyDown	41324	2	Ring	28
570.6133333333333	0	n/a	342369	KeyDown	41324	4	Index	28
571.0500000000001	0	n/a	342631	KeyDown	41324	4	Index	28
571.4266666666667	0	n/a	342857	KeyDown	41324	1	Little	28
571.7483333333333	0	n/a	343050	KeyDown	41324	3	Middle	28
571.8766666666667	0	n/a	343127	KeyDown	41324	2	Ring	28
572.1450000000000	0	n/a	343288	KeyDown	41324	4	Index	28
572.1900000000001	0	n/a	343315	StopPractice	41324	n/a	n/a	28
572.1916666666667	0	n/a	343316	StartRest	XXXXX	n/a	n/a	28
582.2250000000000	0	n/a	349336	StopRest	XXXXX	n/a	n/a	28
582.2266666666667	0	UPPT001	349337	StartPractice	41324	n/a	n/a	29
582.5933333333334	0	n/a	349557	KeyDown	41324	4	Index	29
582.9183333333334	0	n/a	349752	KeyDown	41324	1	Little	29
583.2450000000000	0	n/a	349948	KeyDown	41324	3	Middle	29
583.3283333333334	0	n/a	349998	KeyDown	41324	2	Ring	29
583.5983333333334	0	n/a	350160	KeyDown	41324	4	Index	29
583.9533333333334	0	n/a	350373	KeyDown	41324	4	Index	29
584.2400000000000	0	n/a	350545	KeyDown	41324	1	Little	29
584.5333333333334	0	n/a	350721	KeyDown	41324	3	Middle	29
584.6300000000000	0	n/a	350779	KeyDown	41324	2	Ring	29
584.8883333333333	0	n/a	350934	KeyDown	41324	4	Index	29
585.2600000000000	0	n/a	351157	KeyDown	41324	4	Index	29
585.5483333333334	0	n/a	351330	KeyDown	41324	1	Little	29
585.8766666666667	0	n/a	351527	KeyDown	41324	3	Middle	29
585.9783333333334	0	n/a	351588	KeyDown	41324	2	Ring	29
586.2633333333333	0	n/a	351759	KeyDown	41324	4	Index	29
586.6233333333333	0	n/a	351975	KeyDown	41324	4	Index	29
586.9100000000001	0	n/a	352147	KeyDown	41324	1	Little	29
587.1916666666667	0	n/a	352316	KeyDown	41324	3	Middle	29
587.2883333333334	0	n/a	352374	KeyDown	41324	2	Ring	29
587.6550000000001	0	n/a	352594	KeyDown	41324	4	Index	29
588.0083333333333	0	n/a	352806	KeyDown	41324	4	Index	29
588.3083333333334	0	n/a	352986	KeyDown	41324	1	Little	29
588.8683333333333	0	n/a	353322	KeyDown	41324	3	Middle	29
589.0033333333333	0	n/a	353403	KeyDown	41324	2	Ring	29
589.3550000000000	0	n/a	353614	KeyDown	41324	4	Index	29
589.7166666666667	0	n/a	353831	KeyDown	41324	4	Index	29
589.9866666666667	0	n/a	353993	KeyDown	41324	1	Little	29
590.3933333333333	0	n/a	354237	KeyDown	41324	3	Middle	29
590.4500000000000	0	n/a	354271	KeyDown	41324	2	Ring	29
590.7500000000000	0	n/a	354451	KeyDown	41324	4	Index	29
591.0950000000000	0	n/a	354658	KeyDown	41324	4	Index	29
591.3533333333334	0	n/a	354813	KeyDown	41324	1	Little	29
591.6533333333334	0	n/a	354993	KeyDown	41324	3	Middle	29
591.7516666666667	0	n/a	355052	KeyDown	41324	2	Ring	29
592.0683333333334	0	n/a	355242	KeyDown	41324	4	Index	29
592.2650000000000	0	n/a	355360	StopPractice	41324	n/a	n/a	29
592.2666666666667	0	n/a	355361	StartRest	XXXXX	n/a	n/a	29
602.3000000000001	0	n/a	361381	StopRest	XXXXX	n/a	n/a	29
602.3016666666667	0	UPPT001	361382	StartPractice	41324	n/a	n/a	30
602.6900000000001	0	n/a	361615	KeyDown	41324	4	Index	30
602.9700000000000	0	n/a	361783	KeyDown	41324	1	Little	30
603.2150000000000	0	n/a	361930	KeyDown	41324	3	Middle	30
603.3516666666667	0	n/a	362012	KeyDown	41324	2	Ring	30
603.5833333333334	0	n/a	362151	KeyDown	41324	4	Index	30
603.9150000000001	0	n/a	362350	KeyDown	41324	4	Index	30
604.1733333333334	0	n/a	362505	KeyDown	41324	1	Little	30
604.4383333333334	0	n/a	362664	KeyDown	41324	3	Middle	30
604.5333333333334	0	n/a	362721	KeyDown	41324	2	Ring	30
604.8400000000000	0	n/a	362905	KeyDown	41324	4	Index	30
605.1433333333333	0	n/a	363087	KeyDown	41324	4	Index	30
605.4166666666667	0	n/a	363251	KeyDown	41324	1	Little	30
605.6983333333334	0	n/a	363420	KeyDown	41324	3	Middle	30
605.7733333333334	0	n/a	363465	KeyDown	41324	2	Ring	30
606.0800000000000	0	n/a	363649	KeyDown	41324	4	Index	30
606.3916666666667	0	n/a	363836	KeyDown	41324	4	Index	30
606.6500000000001	0	n/a	363991	KeyDown	41324	1	Little	30
606.9100000000001	0	n/a	364147	KeyDown	41324	3	Middle	30
607.0183333333333	0	n/a	364212	KeyDown	41324	2	Ring	30
607.3183333333334	0	n/a	364392	KeyDown	41324	4	Index	30
607.6000000000000	0	n/a	364561	KeyDown	41324	4	Index	30
607.8483333333334	0	n/a	364710	KeyDown	41324	1	Little	30
608.1150000000000	0	n/a	364870	KeyDown	41324	3	Middle	30
608.2200000000000	0	n/a	364933	KeyDown	41324	2	Ring	30
608.4950000000000	0	n/a	365098	KeyDown	41324	4	Index	30
608.7783333333334	0	n/a	365268	KeyDown	41324	4	Index	30
609.0283333333334	0	n/a	365418	KeyDown	41324	1	Little	30
609.3050000000001	0	n/a	365584	KeyDown	41324	3	Middle	30
609.3883333333333	0	n/a	365634	KeyDown	41324	2	Ring	30
609.6300000000000	0	n/a	365779	KeyDown	41324	4	Index	30
609.8900000000000	0	n/a	365935	KeyDown	41324	4	Index	30
610.1600000000001	0	n/a	366097	KeyDown	41324	1	Little	30
610.5100000000000	0	n/a	366307	KeyDown	41324	3	Middle	30
610.6000000000000	0	n/a	366361	KeyDown	41324	2	Ring	30
610.8416666666667	0	n/a	366506	KeyDown	41324	4	Index	30
611.1050000000000	0	n/a	366664	KeyDown	41324	4	Index	30
611.3816666666667	0	n/a	366830	KeyDown	41324	1	Little	30
611.6783333333334	0	n/a	367008	KeyDown	41324	3	Middle	30
611.7883333333334	0	n/a	367074	KeyDown	41324	2	Ring	30
612.0166666666667	0	n/a	367211	KeyDown	41324	4	Index	30
612.2550000000000	0	n/a	367354	KeyDown	41324	4	Index	30
612.3400000000000	0	n/a	367405	StopPractice	41324	n/a	n/a	30
612.3416666666667	0	n/a	367406	StartRest	XXXXX	n/a	n/a	30
622.3733333333333	0	n/a	373425	StopRest	XXXXX	n/a	n/a	30
622.3750000000000	0	UPPT001	373426	StartPractice	41324	n/a	n/a	31
622.7583333333333	0	n/a	373656	KeyDown	41324	4	Index	31
623.0516666666667	0	n/a	373832	KeyDown	41324	1	Little	31
623.3100000000001	0	n/a	373987	KeyDown	41324	3	Middle	31
623.4383333333334	0	n/a	374064	KeyDown	41324	2	Ring	31
623.7366666666667	0	n/a	374243	KeyDown	41324	4	Index	31
624.2166666666667	0	n/a	374531	KeyDown	41324	4	Index	31
624.6583333333334	0	n/a	374796	KeyDown	41324	1	Little	31
625.0116666666667	0	n/a	375008	KeyDown	41324	3	Middle	31
625.1033333333334	0	n/a	375063	KeyDown	41324	2	Ring	31
625.3650000000000	0	n/a	375220	KeyDown	41324	4	Index	31
625.6516666666668	0	n/a	375392	KeyDown	41324	4	Index	31
625.8950000000001	0	n/a	375538	KeyDown	41324	1	Little	31
626.2000000000000	0	n/a	375721	KeyDown	41324	3	Middle	31
626.3800000000000	0	n/a	375829	KeyDown	41324	2	Ring	31
626.6533333333334	0	n/a	375993	KeyDown	41324	4	Index	31
626.9166666666667	0	n/a	376151	KeyDown	41324	4	Index	31
627.1316666666667	0	n/a	376280	KeyDown	41324	1	Little	31
627.3983333333334	0	n/a	376440	KeyDown	41324	3	Middle	31
627.4966666666667	0	n/a	376499	KeyDown	41324	2	Ring	31
627.7933333333334	0	n/a	376677	KeyDown	41324	4	Index	31
628.0600000000001	0	n/a	376837	KeyDown	41324	4	Index	31
628.2900000000001	0	n/a	376975	KeyDown	41324	1	Little	31
628.5716666666667	0	n/a	377144	KeyDown	41324	3	Middle	31
628.6833333333334	0	n/a	377211	KeyDown	41324	2	Ring	31
628.9033333333334	0	n/a	377343	KeyDown	41324	4	Index	31
629.1450000000001	0	n/a	377488	KeyDown	41324	4	Index	31
629.3416666666667	0	n/a	377606	KeyDown	41324	1	Little	31
629.5866666666667	0	n/a	377753	KeyDown	41324	3	Middle	31
629.6966666666667	0	n/a	377819	KeyDown	41324	2	Ring	31
629.9466666666667	0	n/a	377969	KeyDown	41324	4	Index	31
630.1616666666667	0	n/a	378098	KeyDown	41324	4	Index	31
630.3750000000000	0	n/a	378226	KeyDown	41324	1	Little	31
630.6516666666668	0	n/a	378392	KeyDown	41324	3	Middle	31
630.7816666666668	0	n/a	378470	KeyDown	41324	2	Ring	31
631.0250000000001	0	n/a	378616	KeyDown	41324	4	Index	31
631.2516666666667	0	n/a	378752	KeyDown	41324	4	Index	31
631.4166666666667	0	n/a	378851	KeyDown	41324	1	Little	31
631.7116666666667	0	n/a	379028	KeyDown	41324	3	Middle	31
631.8566666666667	0	n/a	379115	KeyDown	41324	2	Ring	31
632.1016666666667	0	n/a	379262	KeyDown	41324	4	Index	31
632.3266666666667	0	n/a	379397	KeyDown	41324	4	Index	31
632.4133333333334	0	n/a	379449	StopPractice	41324	n/a	n/a	31
632.4150000000001	0	n/a	379450	StartRest	XXXXX	n/a	n/a	31
642.4483333333334	0	n/a	385470	StopRest	XXXXX	n/a	n/a	31
642.4500000000000	0	UPPT001	385471	StartPractice	41324	n/a	n/a	32
642.9183333333334	0	n/a	385752	KeyDown	41324	4	Index	32
643.8716666666667	0	n/a	386324	KeyDown	41324	1	Little	32
644.1800000000001	0	n/a	386509	KeyDown	41324	3	Middle	32
644.2966666666667	0	n/a	386579	KeyDown	41324	2	Ring	32
644.6383333333333	0	n/a	386784	KeyDown	41324	4	Index	32
645.0250000000001	0	n/a	387016	KeyDown	41324	4	Index	32
645.2800000000001	0	n/a	387169	KeyDown	41324	1	Little	32
645.5183333333334	0	n/a	387312	KeyDown	41324	3	Middle	32
645.6166666666667	0	n/a	387371	KeyDown	41324	2	Ring	32
645.9683333333334	0	n/a	387582	KeyDown	41324	4	Index	32
646.3166666666667	0	n/a	387791	KeyDown	41324	4	Index	32
646.6000000000000	0	n/a	387961	KeyDown	41324	1	Little	32
646.8350000000000	0	n/a	388102	KeyDown	41324	3	Middle	32
646.9183333333334	0	n/a	388152	KeyDown	41324	2	Ring	32
647.2466666666667	0	n/a	388349	KeyDown	41324	4	Index	32
647.5633333333334	0	n/a	388539	KeyDown	41324	4	Index	32
647.8083333333334	0	n/a	388686	KeyDown	41324	1	Little	32
648.0866666666667	0	n/a	388853	KeyDown	41324	3	Middle	32
648.1733333333334	0	n/a	388905	KeyDown	41324	2	Ring	32
648.4983333333333	0	n/a	389100	KeyDown	41324	4	Index	32
648.7816666666668	0	n/a	389270	KeyDown	41324	4	Index	32
649.0466666666667	0	n/a	389429	KeyDown	41324	1	Little	32
649.4716666666667	0	n/a	389684	KeyDown	41324	3	Middle	32
649.7933333333334	0	n/a	389877	KeyDown	41324	2	Ring	32
650.0866666666667	0	n/a	390053	KeyDown	41324	4	Index	32
650.3633333333333	0	n/a	390219	KeyDown	41324	4	Index	32
650.6216666666667	0	n/a	390374	KeyDown	41324	1	Little	32
651.0066666666667	0	n/a	390605	KeyDown	41324	3	Middle	32
651.1183333333333	0	n/a	390672	KeyDown	41324	2	Ring	32
651.4416666666667	0	n/a	390866	KeyDown	41324	4	Index	32
651.6933333333334	0	n/a	391017	KeyDown	41324	4	Index	32
651.9283333333334	0	n/a	391158	KeyDown	41324	1	Little	32
652.2266666666667	0	n/a	391337	KeyDown	41324	3	Middle	32
652.3100000000001	0	n/a	391387	KeyDown	41324	2	Ring	32
652.4883333333333	0	n/a	391494	StopPractice	41324	n/a	n/a	32
652.4900000000000	0	n/a	391495	StartRest	XXXXX	n/a	n/a	32
662.5250000000001	0	n/a	397516	StopRest	XXXXX	n/a	n/a	32
662.5266666666668	0	UPPT001	397517	StartPractice	41324	n/a	n/a	33
662.9750000000000	0	n/a	397786	KeyDown	41324	4	Index	33
663.3516666666667	0	n/a	398012	KeyDown	41324	1	Little	33
664.3733333333333	0	n/a	398625	KeyDown	41324	3	Middle	33
664.6583333333334	0	n/a	398796	KeyDown	41324	2	Ring	33
665.0683333333334	0	n/a	399042	KeyDown	41324	4	Index	33
665.3250000000000	0	n/a	399196	KeyDown	41324	4	Index	33
665.6083333333333	0	n/a	399366	KeyDown	41324	1	Little	33
665.8300000000000	0	n/a	399499	KeyDown	41324	3	Middle	33
665.9316666666667	0	n/a	399560	KeyDown	41324	2	Ring	33
666.2233333333334	0	n/a	399735	KeyDown	41324	4	Index	33
666.4266666666667	0	n/a	399857	KeyDown	41324	4	Index	33
666.7250000000000	0	n/a	400036	KeyDown	41324	1	Little	33
667.7033333333334	0	n/a	400623	KeyDown	41324	3	Middle	33
667.7733333333334	0	n/a	400665	KeyDown	41324	2	Ring	33
668.0533333333334	0	n/a	400833	KeyDown	41324	4	Index	33
668.2816666666668	0	n/a	400970	KeyDown	41324	4	Index	33
668.5850000000000	0	n/a	401152	KeyDown	41324	1	Little	33
669.1650000000001	0	n/a	401500	KeyDown	41324	3	Middle	33
669.2483333333333	0	n/a	401550	KeyDown	41324	2	Ring	33
669.7283333333334	0	n/a	401838	KeyDown	41324	4	Index	33
669.9333333333334	0	n/a	401961	KeyDown	41324	4	Index	33
670.1333333333333	0	n/a	402081	KeyDown	41324	1	Little	33
670.4183333333334	0	n/a	402252	KeyDown	41324	3	Middle	33
670.5183333333334	0	n/a	402312	KeyDown	41324	2	Ring	33
671.1283333333333	0	n/a	402678	KeyDown	41324	4	Index	33
671.3366666666667	0	n/a	402803	KeyDown	41324	4	Index	33
671.5400000000001	0	n/a	402925	KeyDown	41324	1	Little	33
672.0000000000000	0	n/a	403201	KeyDown	41324	3	Middle	33
672.0566666666667	0	n/a	403235	KeyDown	41324	2	Ring	33
672.3416666666667	0	n/a	403406	KeyDown	41324	4	Index	33
672.5266666666668	0	n/a	403517	KeyDown	41324	4	Index	33
672.5650000000001	0	n/a	403540	StopPractice	41324	n/a	n/a	33
672.5666666666667	0	n/a	403541	StartRest	XXXXX	n/a	n/a	33
682.5983333333334	0	n/a	409560	StopRest	XXXXX	n/a	n/a	33
682.6000000000000	0	UPPT001	409561	StartPractice	41324	n/a	n/a	34
683.0616666666667	0	n/a	409838	KeyDown	41324	4	Index	34
683.3766666666667	0	n/a	410027	KeyDown	41324	1	Little	34
683.6833333333334	0	n/a	410211	KeyDown	41324	3	Middle	34
683.8116666666667	0	n/a	410288	KeyDown	41324	2	Ring	34
684.1083333333333	0	n/a	410466	KeyDown	41324	4	Index	34
684.2816666666668	0	n/a	410570	KeyDown	41324	4	Index	34
684.5783333333334	0	n/a	410748	KeyDown	41324	1	Little	34
684.7716666666668	0	n/a	410864	KeyDown	41324	3	Middle	34
684.8850000000000	0	n/a	410932	KeyDown	41324	2	Ring	34
685.1233333333333	0	n/a	411075	KeyDown	41324	4	Index	34
685.2800000000001	0	n/a	411169	KeyDown	41324	4	Index	34
685.5233333333334	0	n/a	411315	KeyDown	41324	1	Little	34
685.7516666666667	0	n/a	411452	KeyDown	41324	3	Middle	34
685.8566666666667	0	n/a	411515	KeyDown	41324	2	Ring	34
686.1016666666667	0	n/a	411662	KeyDown	41324	4	Index	34
686.2766666666668	0	n/a	411767	KeyDown	41324	4	Index	34
686.5166666666668	0	n/a	411911	KeyDown	41324	1	Little	34
686.7466666666667	0	n/a	412049	KeyDown	41324	3	Middle	34
686.8216666666667	0	n/a	412094	KeyDown	41324	2	Ring	34
687.0966666666667	0	n/a	412259	KeyDown	41324	4	Index	34
687.2483333333333	0	n/a	412350	KeyDown	41324	4	Index	34
687.4733333333334	0	n/a	412485	KeyDown	41324	1	Little	34
687.6600000000001	0	n/a	412597	KeyDown	41324	3	Middle	34
687.7716666666668	0	n/a	412664	KeyDown	41324	2	Ring	34
688.0166666666668	0	n/a	412811	KeyDown	41324	4	Index	34
688.1933333333334	0	n/a	412917	KeyDown	41324	4	Index	34
688.3933333333334	0	n/a	413037	KeyDown	41324	1	Little	34
688.6416666666668	0	n/a	413186	KeyDown	41324	3	Middle	34
688.7333333333333	0	n/a	413241	KeyDown	41324	2	Ring	34
689.0116666666667	0	n/a	413408	KeyDown	41324	4	Index	34
689.2066666666667	0	n/a	413525	KeyDown	41324	4	Index	34
689.3750000000000	0	n/a	413626	KeyDown	41324	1	Little	34
689.6250000000000	0	n/a	413776	KeyDown	41324	3	Middle	34
689.7116666666667	0	n/a	413828	KeyDown	41324	2	Ring	34
690.0033333333333	0	n/a	414003	KeyDown	41324	4	Index	34
690.1500000000001	0	n/a	414091	KeyDown	41324	4	Index	34
690.3583333333333	0	n/a	414216	KeyDown	41324	1	Little	34
690.6750000000001	0	n/a	414406	KeyDown	41324	3	Middle	34
690.7933333333334	0	n/a	414477	KeyDown	41324	2	Ring	34
691.0216666666668	0	n/a	414614	KeyDown	41324	4	Index	34
691.1933333333334	0	n/a	414717	KeyDown	41324	4	Index	34
691.3883333333333	0	n/a	414834	KeyDown	41324	1	Little	34
691.6483333333334	0	n/a	414990	KeyDown	41324	3	Middle	34
691.8633333333333	0	n/a	415119	KeyDown	41324	2	Ring	34
692.1516666666668	0	n/a	415292	KeyDown	41324	4	Index	34
692.3183333333334	0	n/a	415392	KeyDown	41324	4	Index	34
692.5033333333333	0	n/a	415503	KeyDown	41324	1	Little	34
692.6383333333333	0	n/a	415584	StopPractice	41324	n/a	n/a	34
692.6400000000001	0	n/a	415585	StartRest	XXXXX	n/a	n/a	34
702.6733333333334	0	n/a	421605	StopRest	XXXXX	n/a	n/a	34
702.6750000000001	0	UPPT001	421606	StartPractice	41324	n/a	n/a	35
703.1266666666667	0	n/a	421877	KeyDown	41324	4	Index	35
703.4250000000001	0	n/a	422056	KeyDown	41324	1	Little	35
703.6766666666667	0	n/a	422207	KeyDown	41324	3	Middle	35
703.7716666666668	0	n/a	422264	KeyDown	41324	2	Ring	35
704.0016666666667	0	n/a	422402	KeyDown	41324	4	Index	35
704.1566666666668	0	n/a	422495	KeyDown	41324	4	Index	35
704.3716666666667	0	n/a	422624	KeyDown	41324	1	Little	35
704.6233333333333	0	n/a	422775	KeyDown	41324	3	Middle	35
704.7400000000000	0	n/a	422845	KeyDown	41324	2	Ring	35
705.0066666666667	0	n/a	423005	KeyDown	41324	4	Index	35
705.1516666666668	0	n/a	423092	KeyDown	41324	4	Index	35
705.3816666666667	0	n/a	423230	KeyDown	41324	1	Little	35
705.6116666666667	0	n/a	423368	KeyDown	41324	3	Middle	35
705.7366666666667	0	n/a	423443	KeyDown	41324	2	Ring	35
706.0183333333334	0	n/a	423612	KeyDown	41324	4	Index	35
706.1800000000001	0	n/a	423709	KeyDown	41324	4	Index	35
706.3683333333333	0	n/a	423822	KeyDown	41324	1	Little	35
706.6516666666668	0	n/a	423992	KeyDown	41324	3	Middle	35
706.7766666666668	0	n/a	424067	KeyDown	41324	2	Ring	35
707.0133333333334	0	n/a	424209	KeyDown	41324	4	Index	35
707.1766666666667	0	n/a	424307	KeyDown	41324	4	Index	35
707.3566666666667	0	n/a	424415	KeyDown	41324	1	Little	35
707.6266666666667	0	n/a	424577	KeyDown	41324	3	Middle	35
707.7116666666667	0	n/a	424628	KeyDown	41324	2	Ring	35
708.0283333333334	0	n/a	424818	KeyDown	41324	4	Index	35
708.1433333333334	0	n/a	424887	KeyDown	41324	4	Index	35
708.3800000000000	0	n/a	425029	KeyDown	41324	1	Little	35
708.6700000000001	0	n/a	425203	KeyDown	41324	3	Middle	35
708.7900000000001	0	n/a	425275	KeyDown	41324	2	Ring	35
709.0183333333334	0	n/a	425412	KeyDown	41324	4	Index	35
709.1633333333334	0	n/a	425499	KeyDown	41324	4	Index	35
709.3733333333333	0	n/a	425625	KeyDown	41324	1	Little	35
709.6316666666667	0	n/a	425780	KeyDown	41324	3	Middle	35
709.7383333333333	0	n/a	425844	KeyDown	41324	2	Ring	35
710.0033333333333	0	n/a	426003	KeyDown	41324	4	Index	35
710.1500000000001	0	n/a	426091	KeyDown	41324	4	Index	35
710.3500000000000	0	n/a	426211	KeyDown	41324	1	Little	35
710.6116666666667	0	n/a	426368	KeyDown	41324	3	Middle	35
710.7450000000000	0	n/a	426448	KeyDown	41324	2	Ring	35
711.0183333333334	0	n/a	426612	KeyDown	41324	4	Index	35
711.1266666666667	0	n/a	426677	KeyDown	41324	4	Index	35
711.3166666666667	0	n/a	426791	KeyDown	41324	1	Little	35
711.5750000000000	0	n/a	426946	KeyDown	41324	3	Middle	35
711.7016666666667	0	n/a	427022	KeyDown	41324	2	Ring	35
711.9500000000000	0	n/a	427171	KeyDown	41324	4	Index	35
712.0833333333334	0	n/a	427251	KeyDown	41324	4	Index	35
712.2916666666667	0	n/a	427376	KeyDown	41324	1	Little	35
712.5216666666668	0	n/a	427514	KeyDown	41324	3	Middle	35
712.6183333333333	0	n/a	427572	KeyDown	41324	2	Ring	35
712.7133333333334	0	n/a	427629	StopPractice	41324	n/a	n/a	35
712.7150000000000	0	n/a	427630	StartRest	XXXXX	n/a	n/a	35
722.7650000000001	0	n/a	433660	StopRest	XXXXX	n/a	n/a	35
722.7666666666668	0	UPPT001	433661	StartPractice	41324	n/a	n/a	36
723.1750000000001	0	n/a	433906	KeyDown	41324	4	Index	36
723.4400000000001	0	n/a	434065	KeyDown	41324	1	Little	36
723.7250000000000	0	n/a	434236	KeyDown	41324	3	Middle	36
723.8716666666667	0	n/a	434324	KeyDown	41324	2	Ring	36
724.1100000000000	0	n/a	434467	KeyDown	41324	4	Index	36
724.2833333333334	0	n/a	434571	KeyDown	41324	4	Index	36
724.4766666666667	0	n/a	434687	KeyDown	41324	1	Little	36
724.7433333333333	0	n/a	434847	KeyDown	41324	3	Middle	36
724.8950000000001	0	n/a	434938	KeyDown	41324	2	Ring	36
725.1450000000001	0	n/a	435088	KeyDown	41324	4	Index	36
725.3250000000000	0	n/a	435196	KeyDown	41324	4	Index	36
725.5166666666668	0	n/a	435311	KeyDown	41324	1	Little	36
725.8083333333334	0	n/a	435486	KeyDown	41324	3	Middle	36
725.9116666666667	0	n/a	435548	KeyDown	41324	2	Ring	36
726.1766666666667	0	n/a	435707	KeyDown	41324	4	Index	36
726.3133333333334	0	n/a	435789	KeyDown	41324	4	Index	36
726.5666666666667	0	n/a	435941	KeyDown	41324	1	Little	36
726.8500000000000	0	n/a	436111	KeyDown	41324	3	Middle	36
726.9700000000000	0	n/a	436183	KeyDown	41324	2	Ring	36
727.2133333333334	0	n/a	436329	KeyDown	41324	4	Index	36
727.3833333333333	0	n/a	436431	KeyDown	41324	4	Index	36
727.5883333333334	0	n/a	436554	KeyDown	41324	1	Little	36
727.8700000000000	0	n/a	436723	KeyDown	41324	3	Middle	36
728.0183333333334	0	n/a	436812	KeyDown	41324	2	Ring	36
728.2983333333334	0	n/a	436980	KeyDown	41324	4	Index	36
728.4550000000000	0	n/a	437074	KeyDown	41324	4	Index	36
728.6366666666668	0	n/a	437183	KeyDown	41324	1	Little	36
728.9116666666667	0	n/a	437348	KeyDown	41324	3	Middle	36
729.0366666666667	0	n/a	437423	KeyDown	41324	2	Ring	36
729.3350000000000	0	n/a	437602	KeyDown	41324	4	Index	36
729.4916666666667	0	n/a	437696	KeyDown	41324	4	Index	36
729.6983333333334	0	n/a	437820	KeyDown	41324	1	Little	36
729.9983333333333	0	n/a	438000	KeyDown	41324	3	Middle	36
730.0816666666667	0	n/a	438050	KeyDown	41324	2	Ring	36
730.4050000000001	0	n/a	438244	KeyDown	41324	4	Index	36
730.5766666666667	0	n/a	438347	KeyDown	41324	4	Index	36
730.8100000000001	0	n/a	438487	KeyDown	41324	1	Little	36
731.0916666666667	0	n/a	438656	KeyDown	41324	3	Middle	36
731.1950000000001	0	n/a	438718	KeyDown	41324	2	Ring	36
731.5000000000000	0	n/a	438901	KeyDown	41324	4	Index	36
731.6683333333334	0	n/a	439002	KeyDown	41324	4	Index	36
731.8550000000000	0	n/a	439114	KeyDown	41324	1	Little	36
732.1433333333334	0	n/a	439287	KeyDown	41324	3	Middle	36
732.2750000000001	0	n/a	439366	KeyDown	41324	2	Ring	36
732.5850000000000	0	n/a	439552	KeyDown	41324	4	Index	36
732.7516666666667	0	n/a	439652	KeyDown	41324	4	Index	36
732.8050000000001	0	n/a	439684	StopPractice	41324	n/a	n/a	36
732.8066666666667	0	n/a	439685	StartRest	XXXXX	n/a	n/a	36
742.8416666666667	0	n/a	445706	StopRest	XXXXX	n/a	n/a	36
