onset	duration	channel	onset_sample_idx	event_type	target_sequence	keypress_id	finger_label	trial_number
12.0050000000000	0	UPPT001	7204	StartPractice	41324	n/a	n/a	1
12.9166666666667	0	n/a	7751	KeyDown	41324	4	Index	1
13.0983333333333	0	n/a	7860	KeyDown	41324	1	Little	1
13.6983333333333	0	n/a	8220	KeyDown	41324	3	Middle	1
14.0483333333333	0	n/a	8430	KeyDown	41324	2	Ring	1
14.4233333333333	0	n/a	8655	KeyDown	41324	4	Index	1
14.6366666666667	0	n/a	8783	KeyDown	41324	4	Index	1
14.7733333333333	0	n/a	8865	KeyDown	41324	1	Little	1
14.9700000000000	0	n/a	8983	KeyDown	41324	3	Middle	1
15.0733333333333	0	n/a	9045	KeyDown	41324	2	Ring	1
15.2083333333333	0	n/a	9126	KeyDown	41324	4	Index	1
15.3866666666667	0	n/a	9233	KeyDown	41324	4	Index	1
15.5133333333333	0	n/a	9309	KeyDown	41324	1	Little	1
15.6750000000000	0	n/a	9406	KeyDown	41324	3	Middle	1
15.7866666666667	0	n/a	9473	KeyDown	41324	2	Ring	1
15.8916666666667	0	n/a	9536	KeyDown	41324	4	Index	1
16.0916666666667	0	n/a	9656	KeyDown	41324	4	Index	1
16.1916666666667	0	n/a	9716	KeyDown	41324	1	Little	1
16.3850000000000	0	n/a	9832	KeyDown	41324	3	Middle	1
16.4883333333333	0	n/a	9894	KeyDown	41324	2	Ring	1
16.6716666666667	0	n/a	10004	KeyDown	41324	4	Index	1
16.8266666666667	0	n/a	10097	KeyDown	41324	4	Index	1
16.9533333333333	0	n/a	10173	KeyDown	41324	1	Little	1
17.1550000000000	0	n/a	10294	KeyDown	41324	3	Middle	1
17.2733333333333	0	n/a	10365	KeyDown	41324	2	Ring	1
17.4416666666667	0	n/a	10466	KeyDown	41324	4	Index	1
17.6400000000000	0	n/a	10585	KeyDown	41324	4	Index	1
17.8500000000000	0	n/a	10711	KeyDown	41324	1	Little	1
18.0433333333333	0	n/a	10827	KeyDown	41324	3	Middle	1
18.1633333333333	0	n/a	10899	KeyDown	41324	2	Ring	1
18.3483333333333	0	n/a	11010	KeyDown	41324	4	Index	1
18.5766666666667	0	n/a	11147	KeyDown	41324	4	Index	1
18.7250000000000	0	n/a	11236	KeyDown	41324	1	Little	1
18.9050000000000	0	n/a	11344	KeyDown	41324	3	Middle	1
19.0383333333333	0	n/a	11424	KeyDown	41324	2	Ring	1
19.1316666666667	0	n/a	11480	KeyDown	41324	4	Index	1
19.3333333333333	0	n/a	11601	KeyDown	41324	4	Index	1
19.4500000000000	0	n/a	11671	KeyDown	41324	1	Little	1
19.6266666666667	0	n/a	11777	KeyDown	41324	3	Middle	1
19.7216666666667	0	n/a	11834	KeyDown	41324	2	Ring	1
19.8633333333333	0	n/a	11919	KeyDown	41324	4	Index	1
20.0183333333333	0	n/a	12012	KeyDown	41324	4	Index	1
20.1466666666667	0	n/a	12089	KeyDown	41324	1	Little	1
20.3000000000000	0	n/a	12181	KeyDown	41324	3	Middle	1
20.3983333333333	0	n/a	12240	KeyDown	41324	2	Ring	1
20.5083333333333	0	n/a	12306	KeyDown	41324	4	Index	1
20.7216666666667	0	n/a	12434	KeyDown	41324	4	Index	1
20.8450000000000	0	n/a	12508	KeyDown	41324	1	Little	1
21.0066666666667	0	n/a	12605	KeyDown	41324	3	Middle	1
21.1083333333333	0	n/a	12666	KeyDown	41324	2	Ring	1
21.2533333333333	0	n/a	12753	KeyDown	41324	4	Index	1
21.4133333333333	0	n/a	12849	KeyDown	41324	4	Index	1
21.5283333333333	0	n/a	12918	KeyDown	41324	1	Little	1
21.6833333333333	0	n/a	13011	KeyDown	41324	3	Middle	1
21.8166666666667	0	n/a	13091	KeyDown	41324	2	Ring	1
21.9366666666667	0	n/a	13163	KeyDown	41324	4	Index	1
22.0516666666667	0	n/a	13232	StopPractice	41324	n/a	n/a	1
22.0533333333333	0	n/a	13233	StartRest	XXXXX	n/a	n/a	1
32.0966666666667	0	n/a	19259	StopRest	XXXXX	n/a	n/a	1
32.0983333333333	0	UPPT001	19260	StartPractice	41324	n/a	n/a	2
32.6566666666667	0	n/a	19595	KeyDown	41324	4	Index	2
32.7766666666667	0	n/a	19667	KeyDown	41324	1	Little	2
32.9466666666667	0	n/a	19769	KeyDown	41324	3	Middle	2
33.0716666666667	0	n/a	19844	KeyDown	41324	2	Ring	2
33.2350000000000	0	n/a	19942	KeyDown	41324	4	Index	2
33.3900000000000	0	n/a	20035	KeyDown	41324	4	Index	2
33.4900000000000	0	n/a	20095	KeyDown	41324	1	Little	2
33.6200000000000	0	n/a	20173	KeyDown	41324	3	Middle	2
33.7483333333333	0	n/a	20250	KeyDown	41324	2	Ring	2
33.8450000000000	0	n/a	20308	KeyDown	41324	4	Index	2
34.0200000000000	0	n/a	20413	KeyDown	41324	4	Index	2
34.1400000000000	0	n/a	20485	KeyDown	41324	1	Little	2
34.2800000000000	0	n/a	20569	KeyDown	41324	3	Middle	2
34.3966666666667	0	n/a	20639	KeyDown	41324	2	Ring	2
34.5150000000000	0	n/a	20710	KeyDown	41324	4	Index	2
34.6766666666667	0	n/a	20807	KeyDown	41324	4	Index	2
34.7666666666667	0	n/a	20861	KeyDown	41324	1	Little	2
34.9150000000000	0	n/a	20950	KeyDown	41324	3	Middle	2
35.0216666666667	0	n/a	21014	KeyDown	41324	2	Ring	2
35.1800000000000	0	n/a	21109	KeyDown	41324	4	Index	2
35.3633333333333	0	n/a	21219	KeyDown	41324	4	Index	2
35.4983333333333	0	n/a	21300	KeyDown	41324	1	Little	2
35.6150000000000	0	n/a	21370	KeyDown	41324	3	Middle	2
35.7316666666667	0	n/a	21440	KeyDown	41324	2	Ring	2
35.8416666666667	0	n/a	21506	KeyDown	41324	4	Index	2
36.0316666666667	0	n/a	21620	KeyDown	41324	4	Index	2
36.1383333333333	0	n/a	21684	KeyDown	41324	1	Little	2
36.2816666666667	0	n/a	21770	KeyDown	41324	3	Middle	2
36.3766666666667	0	n/a	21827	KeyDown	41324	2	Ring	2
36.5016666666667	0	n/a	21902	KeyDown	41324	4	Index	2
36.6700000000000	0	n/a	22003	KeyDown	41324	4	Index	2
36.7816666666667	0	n/a	22070	KeyDown	41324	1	Little	2
36.9366666666667	0	n/a	22163	KeyDown	41324	3	Middle	2
37.0383333333333	0	n/a	22224	KeyDown	41324	2	Ring	2
37.1883333333333	0	n/a	22314	KeyDown	41324	4	Index	2
37.3700000000000	0	n/a	22423	KeyDown	41324	4	Index	2
37.4883333333333	0	n/a	22494	KeyDown	41324	1	Little	2
37.6550000000000	0	n/a	22594	KeyDown	41324	3	Middle	2
37.7666666666667	0	n/a	22661	KeyDown	41324	2	Ring	2
37.8866666666667	0	n/a	22733	KeyDown	41324	4	Index	2
38.0600000000000	0	n/a	22837	KeyDown	41324	4	Index	2
38.1816666666667	0	n/a	22910	KeyDown	41324	1	Little	2
38.3300000000000	0	n/a	22999	KeyDown	41324	3	Middle	2
38.4533333333333	0	n/a	23073	KeyDown	41324	2	Ring	2
38.5566666666667	0	n/a	23135	KeyDown	41324	4	Index	2
38.7450000000000	0	n/a	23248	KeyDown	41324	4	Index	2
38.8500000000000	0	n/a	23311	KeyDown	41324	1	Little	2
39.0050000000000	0	n/a	23404	KeyDown	41324	3	Middle	2
39.1183333333333	0	n/a	23472	KeyDown	41324	2	Ring	2
39.2350000000000	0	n/a	23542	KeyDown	41324	4	Index	2
39.4050000000000	0	n/a	23644	KeyDown	41324	4	Index	2
39.5216666666667	0	n/a	23714	KeyDown	41324	1	Little	2
39.6666666666667	0	n/a	23801	KeyDown	41324	3	Middle	2
39.7750000000000	0	n/a	23866	KeyDown	41324	2	Ring	2
39.8550000000000	0	n/a	23914	KeyDown	41324	4	Index	2
40.0350000000000	0	n/a	24022	KeyDown	41324	4	Index	2
40.1916666666667	0	n/a	24116	KeyDown	41324	1	Little	2
40.3133333333333	0	n/a	24189	KeyDown	41324	3	Middle	2
40.4583333333333	0	n/a	24276	KeyDown	41324	2	Ring	2
40.5666666666667	0	n/a	24341	KeyDown	41324	4	Index	2
40.7516666666667	0	n/a	24452	KeyDown	41324	4	Index	2
40.8683333333333	0	n/a	24522	KeyDown	41324	1	Little	2
41.0116666666667	0	n/a	24608	KeyDown	41324	3	Middle	2
41.1616666666667	0	n/a	24698	KeyDown	41324	2	Ring	2
41.2566666666667	0	n/a	24755	KeyDown	41324	4	Index	2
41.4283333333333	0	n/a	24858	KeyDown	41324	4	Index	2
41.5266666666667	0	n/a	24917	KeyDown	41324	1	Little	2
41.6800000000000	0	n/a	25009	KeyDown	41324	3	Middle	2
41.7950000000000	0	n/a	25078	KeyDown	41324	2	Ring	2
41.8900000000000	0	n/a	25135	KeyDown	41324	4	Index	2
42.0700000000000	0	n/a	25243	KeyDown	41324	4	Index	2
42.1450000000000	0	n/a	25288	StopPractice	41324	n/a	n/a	2
42.1466666666667	0	n/a	25289	StartRest	XXXXX	n/a	n/a	2
52.1883333333333	0	n/a	31314	StopRest	XXXXX	n/a	n/a	2
52.1900000000000	0	UPPT001	31315	StartPractice	41324	n/a	n/a	3
52.5533333333333	0	n/a	31533	KeyDown	41324	4	Index	3
52.6766666666667	0	n/a	31607	KeyDown	41324	1	Little	3
52.8350000000000	0	n/a	31702	KeyDown	41324	3	Middle	3
53.0466666666667	0	n/a	31829	KeyDown	41324	2	Ring	3
53.0616666666667	0	n/a	31838	KeyDown	41324	4	Index	3
53.2583333333333	0	n/a	31956	KeyDown	41324	4	Index	3
53.4250000000000	0	n/a	32056	KeyDown	41324	1	Little	3
53.5583333333333	0	n/a	32136	KeyDown	41324	3	Middle	3
53.6733333333333	0	n/a	32205	KeyDown	41324	2	Ring	3
53.7616666666667	0	n/a	32258	KeyDown	41324	4	Index	3
53.9200000000000	0	n/a	32353	KeyDown	41324	4	Index	3
54.0966666666667	0	n/a	32459	KeyDown	41324	1	Little	3
54.2116666666667	0	n/a	32528	KeyDown	41324	3	Middle	3
54.3400000000000	0	n/a	32605	KeyDown	41324	2	Ring	3
54.4383333333333	0	n/a	32664	KeyDown	41324	4	Index	3
54.5816666666667	0	n/a	32750	KeyDown	41324	4	Index	3
54.7250000000000	0	n/a	32836	KeyDown	41324	1	Little	3
54.8633333333333	0	n/a	32919	KeyDown	41324	3	Middle	3
54.9983333333333	0	n/a	33000	KeyDown	41324	2	Ring	3
55.0350000000000	0	n/a	33022	KeyDown	41324	4	Index	3
55.2283333333333	0	n/a	33138	KeyDown	41324	4	Index	3
55.3883333333333	0	n/a	33234	KeyDown	41324	1	Little	3
55.5200000000000	0	n/a	33313	KeyDown	41324	3	Middle	3
55.6533333333333	0	n/a	33393	KeyDown	41324	2	Ring	3
55.7516666666667	0	n/a	33452	KeyDown	41324	4	Index	3
55.8933333333333	0	n/a	33537	KeyDown	41324	4	Index	3
56.0183333333333	0	n/a	33612	KeyDown	41324	1	Little	3
56.1666666666667	0	n/a	33701	KeyDown	41324	3	Middle	3
56.2866666666667	0	n/a	33773	KeyDown	41324	2	Ring	3
56.3566666666667	0	n/a	33815	KeyDown	41324	4	Index	3
56.5483333333333	0	n/a	33930	KeyDown	41324	4	Index	3
56.6816666666667	0	n/a	34010	KeyDown	41324	1	Little	3
56.8966666666667	0	n/a	34139	KeyDown	41324	3	Middle	3
57.0566666666667	0	n/a	34235	KeyDown	41324	2	Ring	3
57.1683333333333	0	n/a	34302	KeyDown	41324	4	Index	3
57.3333333333333	0	n/a	34401	KeyDown	41324	4	Index	3
57.4716666666667	0	n/a	34484	KeyDown	41324	1	Little	3
57.5966666666667	0	n/a	34559	KeyDown	41324	3	Middle	3
57.7416666666667	0	n/a	34646	KeyDown	41324	2	Ring	3
57.8800000000000	0	n/a	34729	KeyDown	41324	4	Index	3
58.0666666666667	0	n/a	34841	KeyDown	41324	4	Index	3
58.1633333333333	0	n/a	34899	KeyDown	41324	1	Little	3
58.3033333333333	0	n/a	34983	KeyDown	41324	3	Middle	3
58.4183333333333	0	n/a	35052	KeyDown	41324	2	Ring	3
58.5416666666667	0	n/a	35126	KeyDown	41324	4	Index	3
58.7183333333333	0	n/a	35232	KeyDown	41324	4	Index	3
58.8233333333333	0	n/a	35295	KeyDown	41324	1	Little	3
58.9800000000000	0	n/a	35389	KeyDown	41324	3	Middle	3
59.0733333333333	0	n/a	35445	KeyDown	41324	2	Ring	3
59.2000000000000	0	n/a	35521	KeyDown	41324	4	Index	3
59.3650000000000	0	n/a	35620	KeyDown	41324	4	Index	3
59.4750000000000	0	n/a	35686	KeyDown	41324	1	Little	3
59.6183333333333	0	n/a	35772	KeyDown	41324	3	Middle	3
59.7366666666667	0	n/a	35843	KeyDown	41324	2	Ring	3
59.8383333333333	0	n/a	35904	KeyDown	41324	4	Index	3
60.0100000000000	0	n/a	36007	KeyDown	41324	4	Index	3
60.1166666666667	0	n/a	36071	KeyDown	41324	1	Little	3
60.2733333333333	0	n/a	36165	KeyDown	41324	3	Middle	3
60.3866666666667	0	n/a	36233	KeyDown	41324	2	Ring	3
60.5383333333333	0	n/a	36324	KeyDown	41324	4	Index	3
60.7133333333333	0	n/a	36429	KeyDown	41324	4	Index	3
60.8216666666667	0	n/a	36494	KeyDown	41324	1	Little	3
60.9700000000000	0	n/a	36583	KeyDown	41324	3	Middle	3
61.0850000000000	0	n/a	36652	KeyDown	41324	2	Ring	3
61.2133333333333	0	n/a	36729	KeyDown	41324	4	Index	3
61.3866666666667	0	n/a	36833	KeyDown	41324	4	Index	3
61.5033333333333	0	n/a	36903	KeyDown	41324	1	Little	3
61.6516666666667	0	n/a	36992	KeyDown	41324	3	Middle	3
61.7750000000000	0	n/a	37066	KeyDown	41324	2	Ring	3
61.8916666666667	0	n/a	37136	KeyDown	41324	4	Index	3
62.0683333333333	0	n/a	37242	KeyDown	41324	4	Index	3
62.1683333333333	0	n/a	37302	KeyDown	41324	1	Little	3
62.2366666666667	0	n/a	37343	StopPractice	41324	n/a	n/a	3
62.2383333333333	0	n/a	37344	StartRest	XXXXX	n/a	n/a	3
72.2800000000000	0	n/a	43369	StopRest	XXXXX	n/a	n/a	3
72.2816666666667	0	UPPT001	43370	StartPractice	41324	n/a	n/a	4
72.8200000000000	0	n/a	43693	KeyDown	41324	4	Index	4
72.9500000000000	0	n/a	43771	KeyDown	41324	1	Little	4
73.1450000000000	0	n/a	43888	KeyDown	41324	3	Middle	4
73.2733333333333	0	n/a	43965	KeyDown	41324	2	Ring	4
73.4433333333333	0	n/a	44067	KeyDown	41324	4	Index	4
73.6150000000000	0	n/a	44170	KeyDown	41324	4	Index	4
73.7283333333333	0	n/a	44238	KeyDown	41324	1	Little	4
73.8783333333333	0	n/a	44328	KeyDown	41324	3	Middle	4
73.9950000000000	0	n/a	44398	KeyDown	41324	2	Ring	4
74.1333333333333	0	n/a	44481	KeyDown	41324	4	Index	4
74.3000000000000	0	n/a	44581	KeyDown	41324	4	Index	4
74.4300000000000	0	n/a	44659	KeyDown	41324	1	Little	4
74.6000000000000	0	n/a	44761	KeyDown	41324	3	Middle	4
74.7183333333333	0	n/a	44832	KeyDown	41324	2	Ring	4
74.8450000000000	0	n/a	44908	KeyDown	41324	4	Index	4
75.0000000000000	0	n/a	45001	KeyDown	41324	4	Index	4
75.1066666666667	0	n/a	45065	KeyDown	41324	1	Little	4
75.2633333333333	0	n/a	45159	KeyDown	41324	3	Middle	4
75.3666666666667	0	n/a	45221	KeyDown	41324	2	Ring	4
75.5083333333333	0	n/a	45306	KeyDown	41324	4	Index	4
75.6666666666667	0	n/a	45401	KeyDown	41324	4	Index	4
75.7933333333333	0	n/a	45477	KeyDown	41324	1	Little	4
75.9500000000000	0	n/a	45571	KeyDown	41324	3	Middle	4
76.0700000000000	0	n/a	45643	KeyDown	41324	2	Ring	4
76.1750000000000	0	n/a	45706	KeyDown	41324	4	Index	4
76.3600000000000	0	n/a	45817	KeyDown	41324	4	Index	4
76.4750000000000	0	n/a	45886	KeyDown	41324	1	Little	4
76.6183333333333	0	n/a	45972	KeyDown	41324	3	Middle	4
76.7583333333333	0	n/a	46056	KeyDown	41324	2	Ring	4
76.8633333333333	0	n/a	46119	KeyDown	41324	4	Index	4
77.0283333333333	0	n/a	46218	KeyDown	41324	4	Index	4
77.1483333333333	0	n/a	46290	KeyDown	41324	1	Little	4
77.2983333333333	0	n/a	46380	KeyDown	41324	3	Middle	4
77.4350000000000	0	n/a	46462	KeyDown	41324	2	Ring	4
77.5333333333333	0	n/a	46521	KeyDown	41324	4	Index	4
77.7100000000000	0	n/a	46627	KeyDown	41324	4	Index	4
77.8283333333333	0	n/a	46698	KeyDown	41324	1	Little	4
78.0066666666667	0	n/a	46805	KeyDown	41324	3	Middle	4
78.1200000000000	0	n/a	46873	KeyDown	41324	2	Ring	4
78.2433333333333	0	n/a	46947	KeyDown	41324	4	Index	4
78.4200000000000	0	n/a	47053	KeyDown	41324	4	Index	4
78.5200000000000	0	n/a	47113	KeyDown	41324	1	Little	4
78.7000000000000	0	n/a	47221	KeyDown	41324	3	Middle	4
78.8266666666667	0	n/a	47297	KeyDown	41324	2	Ring	4
78.9700000000000	0	n/a	47383	KeyDown	41324	4	Index	4
79.1683333333333	0	n/a	47502	KeyDown	41324	4	Index	4
79.2700000000000	0	n/a	47563	KeyDown	41324	1	Little	4
79.4400000000000	0	n/a	47665	KeyDown	41324	3	Middle	4
79.5500000000000	0	n/a	47731	KeyDown	41324	2	Ring	4
79.6700000000000	0	n/a	47803	KeyDown	41324	4	Index	4
79.8516666666667	0	n/a	47912	KeyDown	41324	4	Index	4
79.9933333333333	0	n/a	47997	KeyDown	41324	1	Little	4
80.1550000000000	0	n/a	48094	KeyDown	41324	3	Middle	4
80.2800000000000	0	n/a	48169	KeyDown	41324	2	Ring	4
80.3950000000000	0	n/a	48238	KeyDown	41324	4	Index	4
80.5716666666667	0	n/a	48344	KeyDown	41324	4	Index	4
80.6800000000000	0	n/a	48409	KeyDown	41324	1	Little	4
80.8250000000000	0	n/a	48496	KeyDown	41324	3	Middle	4
80.9500000000000	0	n/a	48571	KeyDown	41324	2	Ring	4
81.1133333333333	0	n/a	48669	KeyDown	41324	4	Index	4
81.3516666666667	0	n/a	48812	KeyDown	41324	1	Little	4
81.5350000000000	0	n/a	48922	KeyDown	41324	3	Middle	4
81.6616666666667	0	n/a	48998	KeyDown	41324	2	Ring	4
81.8150000000000	0	n/a	49090	KeyDown	41324	4	Index	4
82.0033333333333	0	n/a	49203	KeyDown	41324	4	Index	4
82.1583333333333	0	n/a	49296	KeyDown	41324	1	Little	4
82.3283333333333	0	n/a	49398	StopPractice	41324	n/a	n/a	4
82.3300000000000	0	n/a	49399	StartRest	XXXXX	n/a	n/a	4
92.3733333333333	0	n/a	55425	StopRest	XXXXX	n/a	n/a	4
92.3750000000000	0	UPPT001	55426	StartPractice	41324	n/a	n/a	5
92.8733333333333	0	n/a	55725	KeyDown	41324	4	Index	5
92.9916666666667	0	n/a	55796	KeyDown	41324	1	Little	5
93.1583333333333	0	n/a	55896	KeyDown	41324	3	Middle	5
93.1716666666667	0	n/a	55904	KeyDown	41324	2	Ring	5
93.3566666666667	0	n/a	56015	KeyDown	41324	2	Ring	5
93.4833333333333	0	n/a	56091	KeyDown	41324	4	Index	5
93.6383333333333	0	n/a	56184	KeyDown	41324	4	Index	5
93.7750000000000	0	n/a	56266	KeyDown	41324	1	Little	5
93.9233333333333	0	n/a	56355	KeyDown	41324	3	Middle	5
94.0350000000000	0	n/a	56422	KeyDown	41324	2	Ring	5
94.1733333333333	0	n/a	56505	KeyDown	41324	4	Index	5
94.3416666666667	0	n/a	56606	KeyDown	41324	4	Index	5
94.4383333333333	0	n/a	56664	KeyDown	41324	1	Little	5
94.5916666666667	0	n/a	56756	KeyDown	41324	3	Middle	5
94.6833333333333	0	n/a	56811	KeyDown	41324	2	Ring	5
94.8350000000000	0	n/a	56902	KeyDown	41324	4	Index	5
95.0033333333333	0	n/a	57003	KeyDown	41324	4	Index	5
95.2216666666667	0	n/a	57134	KeyDown	41324	1	Little	5
95.3950000000000	0	n/a	57238	KeyDown	41324	3	Middle	5
95.5366666666667	0	n/a	57323	KeyDown	41324	2	Ring	5
95.6583333333333	0	n/a	57396	KeyDown	41324	4	Index	5
95.8316666666667	0	n/a	57500	KeyDown	41324	4	Index	5
95.9266666666667	0	n/a	57557	KeyDown	41324	1	Little	5
96.0816666666667	0	n/a	57650	KeyDown	41324	3	Middle	5
96.1900000000000	0	n/a	57715	KeyDown	41324	2	Ring	5
96.3283333333333	0	n/a	57798	KeyDown	41324	4	Index	5
96.4916666666667	0	n/a	57896	KeyDown	41324	4	Index	5
96.6116666666667	0	n/a	57968	KeyDown	41324	1	Little	5
96.7516666666667	0	n/a	58052	KeyDown	41324	3	Middle	5
96.8666666666667	0	n/a	58121	KeyDown	41324	2	Ring	5
97.0200000000000	0	n/a	58213	KeyDown	41324	4	Index	5
97.3316666666667	0	n/a	58400	KeyDown	41324	4	Index	5
97.4166666666667	0	n/a	58451	KeyDown	41324	1	Little	5
97.5533333333333	0	n/a	58533	KeyDown	41324	3	Middle	5
97.6833333333333	0	n/a	58611	KeyDown	41324	2	Ring	5
97.8100000000000	0	n/a	58687	KeyDown	41324	4	Index	5
97.9683333333333	0	n/a	58782	KeyDown	41324	4	Index	5
98.0983333333333	0	n/a	58860	KeyDown	41324	1	Little	5
98.2450000000000	0	n/a	58948	KeyDown	41324	3	Middle	5
98.3500000000000	0	n/a	59011	KeyDown	41324	2	Ring	5
98.4900000000000	0	n/a	59095	KeyDown	41324	4	Index	5
98.6683333333333	0	n/a	59202	KeyDown	41324	4	Index	5
98.7766666666667	0	n/a	59267	KeyDown	41324	1	Little	5
98.9233333333333	0	n/a	59355	KeyDown	41324	3	Middle	5
99.0933333333333	0	n/a	59457	KeyDown	41324	2	Ring	5
99.1883333333333	0	n/a	59514	KeyDown	41324	4	Index	5
99.3866666666667	0	n/a	59633	KeyDown	41324	4	Index	5
99.4833333333333	0	n/a	59691	KeyDown	41324	1	Little	5
99.6666666666667	0	n/a	59801	KeyDown	41324	3	Middle	5
99.7550000000000	0	n/a	59854	KeyDown	41324	2	Ring	5
99.9100000000000	0	n/a	59947	KeyDown	41324	4	Index	5
100.1000000000000	0	n/a	60061	KeyDown	41324	4	Index	5
100.2316666666667	0	n/a	60140	KeyDown	41324	1	Little	5
100.4166666666667	0	n/a	60251	KeyDown	41324	2	Ring	5
100.4266666666667	0	n/a	60257	KeyDown	41324	3	Middle	5
100.5816666666667	0	n/a	60350	KeyDown	41324	2	Ring	5
100.7133333333333	0	n/a	60429	KeyDown	41324	4	Index	5
100.9383333333333	0	n/a	60564	KeyDown	41324	4	Index	5
101.0933333333333	0	n/a	60657	KeyDown	41324	1	Little	5
101.2400000000000	0	n/a	60745	KeyDown	41324	3	Middle	5
101.3283333333333	0	n/a	60798	KeyDown	41324	2	Ring	5
101.4583333333333	0	n/a	60876	KeyDown	41324	4	Index	5
101.6583333333333	0	n/a	60996	KeyDown	41324	4	Index	5
101.8466666666667	0	n/a	61109	KeyDown	41324	1	Little	5
101.9883333333333	0	n/a	61194	KeyDown	41324	3	Middle	5
102.0966666666667	0	n/a	61259	KeyDown	41324	2	Ring	5
102.2416666666667	0	n/a	61346	KeyDown	41324	4	Index	5
102.4216666666667	0	n/a	61454	StopPractice	41324	n/a	n/a	5
102.4233333333333	0	n/a	61455	StartRest	XXXXX	n/a	n/a	5
112.4633333333333	0	n/a	67479	StopRest	XXXXX	n/a	n/a	5
112.4650000000000	0	UPPT001	67480	StartPractice	41324	n/a	n/a	6
112.8966666666667	0	n/a	67739	KeyDown	41324	4	Index	6
113.0266666666667	0	n/a	67817	KeyDown	41324	1	Little	6
113.1583333333333	0	n/a	67896	KeyDown	41324	3	Middle	6
113.2483333333333	0	n/a	67950	KeyDown	41324	2	Ring	6
113.4283333333333	0	n/a	68058	KeyDown	41324	4	Index	6
113.6183333333333	0	n/a	68172	KeyDown	41324	1	Little	6
113.7733333333333	0	n/a	68265	KeyDown	41324	3	Middle	6
113.8566666666667	0	n/a	68315	KeyDown	41324	2	Ring	6
114.0116666666667	0	n/a	68408	KeyDown	41324	4	Index	6
114.1833333333333	0	n/a	68511	KeyDown	41324	4	Index	6
114.2983333333333	0	n/a	68580	KeyDown	41324	1	Little	6
114.4633333333333	0	n/a	68679	KeyDown	41324	3	Middle	6
114.5816666666667	0	n/a	68750	KeyDown	41324	2	Ring	6
114.7166666666667	0	n/a	68831	KeyDown	41324	4	Index	6
114.8683333333333	0	n/a	68922	KeyDown	41324	4	Index	6
115.0150000000000	0	n/a	69010	KeyDown	41324	1	Little	6
115.1566666666667	0	n/a	69095	KeyDown	41324	3	Middle	6
115.2916666666667	0	n/a	69176	KeyDown	41324	2	Ring	6
115.4216666666667	0	n/a	69254	KeyDown	41324	4	Index	6
115.5816666666667	0	n/a	69350	KeyDown	41324	4	Index	6
115.6966666666667	0	n/a	69419	KeyDown	41324	1	Little	6
115.8433333333333	0	n/a	69507	KeyDown	41324	3	Middle	6
115.9500000000000	0	n/a	69571	KeyDown	41324	2	Ring	6
116.0816666666667	0	n/a	69650	KeyDown	41324	4	Index	6
116.2516666666667	0	n/a	69752	KeyDown	41324	4	Index	6
116.3483333333333	0	n/a	69810	KeyDown	41324	1	Little	6
116.5116666666667	0	n/a	69908	KeyDown	41324	3	Middle	6
116.6833333333333	0	n/a	70011	KeyDown	41324	2	Ring	6
116.7666666666667	0	n/a	70061	KeyDown	41324	4	Index	6
116.9716666666667	0	n/a	70184	KeyDown	41324	4	Index	6
117.0783333333333	0	n/a	70248	KeyDown	41324	1	Little	6
117.2783333333333	0	n/a	70368	KeyDown	41324	3	Middle	6
117.4333333333333	0	n/a	70461	KeyDown	41324	2	Ring	6
117.5350000000000	0	n/a	70522	KeyDown	41324	4	Index	6
117.7116666666667	0	n/a	70628	KeyDown	41324	4	Index	6
117.8216666666667	0	n/a	70694	KeyDown	41324	1	Little	6
117.9883333333333	0	n/a	70794	KeyDown	41324	3	Middle	6
118.1116666666667	0	n/a	70868	KeyDown	41324	2	Ring	6
118.2616666666667	0	n/a	70958	KeyDown	41324	4	Index	6
118.4166666666667	0	n/a	71051	KeyDown	41324	4	Index	6
118.5316666666667	0	n/a	71120	KeyDown	41324	1	Little	6
118.7100000000000	0	n/a	71227	KeyDown	41324	3	Middle	6
118.8316666666667	0	n/a	71300	KeyDown	41324	2	Ring	6
118.9166666666667	0	n/a	71351	KeyDown	41324	4	Index	6
119.1383333333333	0	n/a	71484	KeyDown	41324	4	Index	6
119.3283333333333	0	n/a	71598	KeyDown	41324	1	Little	6
119.4600000000000	0	n/a	71677	KeyDown	41324	3	Middle	6
119.5900000000000	0	n/a	71755	KeyDown	41324	2	Ring	6
119.7166666666667	0	n/a	71831	KeyDown	41324	4	Index	6
119.8850000000000	0	n/a	71932	KeyDown	41324	4	Index	6
120.0216666666667	0	n/a	72014	KeyDown	41324	1	Little	6
120.1633333333333	0	n/a	72099	KeyDown	41324	3	Middle	6
120.1700000000000	0	n/a	72103	KeyDown	41324	2	Ring	6
120.2866666666667	0	n/a	72173	KeyDown	41324	2	Ring	6
120.4733333333333	0	n/a	72285	KeyDown	41324	4	Index	6
120.6633333333333	0	n/a	72399	KeyDown	41324	4	Index	6
120.7733333333333	0	n/a	72465	KeyDown	41324	1	Little	6
120.9333333333333	0	n/a	72561	KeyDown	41324	3	Middle	6
121.0416666666667	0	n/a	72626	KeyDown	41324	2	Ring	6
121.1883333333333	0	n/a	72714	KeyDown	41324	4	Index	6
121.3616666666667	0	n/a	72818	KeyDown	41324	4	Index	6
121.4966666666667	0	n/a	72899	KeyDown	41324	1	Little	6
121.6433333333333	0	n/a	72987	KeyDown	41324	3	Middle	6
121.6533333333333	0	n/a	72993	KeyDown	41324	2	Ring	6
121.7550000000000	0	n/a	73054	KeyDown	41324	2	Ring	6
121.9416666666667	0	n/a	73166	KeyDown	41324	4	Index	6
122.1366666666667	0	n/a	73283	KeyDown	41324	4	Index	6
122.2566666666667	0	n/a	73355	KeyDown	41324	1	Little	6
122.3983333333333	0	n/a	73440	KeyDown	41324	3	Middle	6
122.5116666666667	0	n/a	73508	StopPractice	41324	n/a	n/a	6
122.5133333333333	0	n/a	73509	StartRest	XXXXX	n/a	n/a	6
132.5550000000000	0	n/a	79534	StopRest	XXXXX	n/a	n/a	6
132.5566666666667	0	UPPT001	79535	StartPractice	41324	n/a	n/a	7
132.9550000000000	0	n/a	79774	KeyDown	41324	4	Index	7
133.0966666666667	0	n/a	79859	KeyDown	41324	1	Little	7
133.2350000000000	0	n/a	79942	KeyDown	41324	3	Middle	7
133.3300000000000	0	n/a	79999	KeyDown	41324	2	Ring	7
133.5116666666667	0	n/a	80108	KeyDown	41324	4	Index	7
133.7200000000000	0	n/a	80233	KeyDown	41324	4	Index	7
133.8066666666667	0	n/a	80285	KeyDown	41324	1	Little	7
133.9433333333333	0	n/a	80367	KeyDown	41324	3	Middle	7
134.0300000000000	0	n/a	80419	KeyDown	41324	2	Ring	7
134.1750000000000	0	n/a	80506	KeyDown	41324	4	Index	7
134.3250000000000	0	n/a	80596	KeyDown	41324	4	Index	7
134.4600000000000	0	n/a	80677	KeyDown	41324	1	Little	7
134.5883333333333	0	n/a	80754	KeyDown	41324	3	Middle	7
134.7033333333333	0	n/a	80823	KeyDown	41324	2	Ring	7
134.9300000000000	0	n/a	80959	KeyDown	41324	4	Index	7
135.1033333333334	0	n/a	81063	KeyDown	41324	4	Index	7
135.3300000000000	0	n/a	81199	KeyDown	41324	1	Little	7
135.4683333333333	0	n/a	81282	KeyDown	41324	3	Middle	7
135.5766666666667	0	n/a	81347	KeyDown	41324	2	Ring	7
135.7700000000000	0	n/a	81463	KeyDown	41324	2	Ring	7
135.8866666666667	0	n/a	81533	KeyDown	41324	4	Index	7
136.0583333333333	0	n/a	81636	KeyDown	41324	4	Index	7
136.1550000000000	0	n/a	81694	KeyDown	41324	1	Little	7
136.3150000000000	0	n/a	81790	KeyDown	41324	3	Middle	7
136.4216666666667	0	n/a	81854	KeyDown	41324	2	Ring	7
136.5733333333334	0	n/a	81945	KeyDown	41324	4	Index	7
136.7366666666667	0	n/a	82043	KeyDown	41324	4	Index	7
136.8633333333333	0	n/a	82119	KeyDown	41324	1	Little	7
137.0550000000000	0	n/a	82234	KeyDown	41324	3	Middle	7
137.1766666666667	0	n/a	82307	KeyDown	41324	2	Ring	7
137.2800000000000	0	n/a	82369	KeyDown	41324	4	Index	7
137.4350000000000	0	n/a	82462	KeyDown	41324	4	Index	7
137.5700000000000	0	n/a	82543	KeyDown	41324	1	Little	7
137.7583333333334	0	n/a	82656	KeyDown	41324	3	Middle	7
137.7650000000000	0	n/a	82660	KeyDown	41324	2	Ring	7
137.8683333333333	0	n/a	82722	KeyDown	41324	2	Ring	7
138.0100000000000	0	n/a	82807	KeyDown	41324	4	Index	7
138.1933333333333	0	n/a	82917	KeyDown	41324	4	Index	7
138.3216666666667	0	n/a	82994	KeyDown	41324	1	Little	7
138.5100000000000	0	n/a	83107	KeyDown	41324	3	Middle	7
138.5216666666667	0	n/a	83114	KeyDown	41324	2	Ring	7
138.6133333333333	0	n/a	83169	KeyDown	41324	3	Middle	7
138.7133333333333	0	n/a	83229	KeyDown	41324	2	Ring	7
138.8883333333333	0	n/a	83334	KeyDown	41324	4	Index	7
139.0816666666667	0	n/a	83450	KeyDown	41324	4	Index	7
139.1900000000000	0	n/a	83515	KeyDown	41324	1	Little	7
139.3500000000000	0	n/a	83611	KeyDown	41324	3	Middle	7
139.4416666666667	0	n/a	83666	KeyDown	41324	2	Ring	7
139.5716666666667	0	n/a	83744	KeyDown	41324	4	Index	7
139.7466666666667	0	n/a	83849	KeyDown	41324	4	Index	7
139.8950000000000	0	n/a	83938	KeyDown	41324	1	Little	7
140.0550000000000	0	n/a	84034	KeyDown	41324	3	Middle	7
140.1933333333334	0	n/a	84117	KeyDown	41324	2	Ring	7
140.2933333333334	0	n/a	84177	KeyDown	41324	4	Index	7
140.4783333333334	0	n/a	84288	KeyDown	41324	4	Index	7
140.6116666666667	0	n/a	84368	KeyDown	41324	1	Little	7
140.8116666666667	0	n/a	84488	KeyDown	41324	3	Middle	7
140.9200000000000	0	n/a	84553	KeyDown	41324	2	Ring	7
141.0600000000000	0	n/a	84637	KeyDown	41324	4	Index	7
141.2550000000000	0	n/a	84754	KeyDown	41324	4	Index	7
141.3700000000000	0	n/a	84823	KeyDown	41324	1	Little	7
141.5666666666667	0	n/a	84941	KeyDown	41324	3	Middle	7
141.6800000000000	0	n/a	85009	KeyDown	41324	2	Ring	7
141.8333333333333	0	n/a	85101	KeyDown	41324	4	Index	7
142.0283333333333	0	n/a	85218	KeyDown	41324	4	Index	7
142.1850000000000	0	n/a	85312	KeyDown	41324	1	Little	7
142.3483333333333	0	n/a	85410	KeyDown	41324	3	Middle	7
142.4600000000000	0	n/a	85477	KeyDown	41324	2	Ring	7
142.6033333333334	0	n/a	85563	StopPractice	41324	n/a	n/a	7
142.6050000000000	0	n/a	85564	StartRest	XXXXX	n/a	n/a	7
152.6466666666667	0	n/a	91589	StopRest	XXXXX	n/a	n/a	7
152.6483333333333	0	UPPT001	91590	StartPractice	41324	n/a	n/a	8
153.0266666666667	0	n/a	91817	KeyDown	41324	4	Index	8
153.1516666666667	0	n/a	91892	KeyDown	41324	1	Little	8
153.3150000000000	0	n/a	91990	KeyDown	41324	3	Middle	8
153.4600000000000	0	n/a	92077	KeyDown	41324	2	Ring	8
153.6250000000000	0	n/a	92176	KeyDown	41324	4	Index	8
153.7950000000000	0	n/a	92278	KeyDown	41324	4	Index	8
153.8416666666667	0	n/a	92306	KeyDown	41324	1	Little	8
154.0033333333333	0	n/a	92403	KeyDown	41324	2	Ring	8
154.0050000000000	0	n/a	92404	KeyDown	41324	3	Middle	8
154.1350000000000	0	n/a	92482	KeyDown	41324	2	Ring	8
154.2566666666667	0	n/a	92555	KeyDown	41324	4	Index	8
154.4633333333333	0	n/a	92679	KeyDown	41324	1	Little	8
154.6550000000000	0	n/a	92794	KeyDown	41324	3	Middle	8
154.7700000000000	0	n/a	92863	KeyDown	41324	2	Ring	8
154.8966666666667	0	n/a	92939	KeyDown	41324	4	Index	8
155.0816666666667	0	n/a	93050	KeyDown	41324	4	Index	8
155.1766666666667	0	n/a	93107	KeyDown	41324	1	Little	8
155.3683333333333	0	n/a	93222	KeyDown	41324	2	Ring	8
155.3716666666667	0	n/a	93224	KeyDown	41324	3	Middle	8
155.5216666666667	0	n/a	93314	KeyDown	41324	2	Ring	8
155.6500000000000	0	n/a	93391	KeyDown	41324	4	Index	8
155.8400000000000	0	n/a	93505	KeyDown	41324	4	Index	8
155.9500000000000	0	n/a	93571	KeyDown	41324	1	Little	8
156.1033333333334	0	n/a	93663	KeyDown	41324	3	Middle	8
156.2450000000000	0	n/a	93748	KeyDown	41324	2	Ring	8
156.3866666666667	0	n/a	93833	KeyDown	41324	4	Index	8
156.5766666666667	0	n/a	93947	KeyDown	41324	4	Index	8
156.6666666666667	0	n/a	94001	KeyDown	41324	1	Little	8
156.8950000000000	0	n/a	94138	KeyDown	41324	3	Middle	8
157.0200000000000	0	n/a	94213	KeyDown	41324	2	Ring	8
157.1533333333333	0	n/a	94293	KeyDown	41324	4	Index	8
157.3416666666667	0	n/a	94406	KeyDown	41324	4	Index	8
157.4366666666667	0	n/a	94463	KeyDown	41324	1	Little	8
157.6150000000000	0	n/a	94570	KeyDown	41324	3	Middle	8
157.7333333333333	0	n/a	94641	KeyDown	41324	2	Ring	8
157.8666666666667	0	n/a	94721	KeyDown	41324	4	Index	8
158.0550000000000	0	n/a	94834	KeyDown	41324	4	Index	8
158.1533333333333	0	n/a	94893	KeyDown	41324	1	Little	8
158.3333333333333	0	n/a	95001	KeyDown	41324	3	Middle	8
158.4616666666667	0	n/a	95078	KeyDown	41324	2	Ring	8
158.6016666666667	0	n/a	95162	KeyDown	41324	4	Index	8
158.7883333333334	0	n/a	95274	KeyDown	41324	4	Index	8
158.9000000000000	0	n/a	95341	KeyDown	41324	1	Little	8
159.0716666666667	0	n/a	95444	KeyDown	41324	3	Middle	8
159.2300000000000	0	n/a	95539	KeyDown	41324	2	Ring	8
159.3100000000000	0	n/a	95587	KeyDown	41324	4	Index	8
159.5116666666667	0	n/a	95708	KeyDown	41324	4	Index	8
159.5816666666667	0	n/a	95750	KeyDown	41324	1	Little	8
159.7966666666667	0	n/a	95879	KeyDown	41324	3	Middle	8
159.9300000000000	0	n/a	95959	KeyDown	41324	2	Ring	8
160.0583333333333	0	n/a	96036	KeyDown	41324	4	Index	8
160.2416666666667	0	n/a	96146	KeyDown	41324	4	Index	8
160.3616666666667	0	n/a	96218	KeyDown	41324	1	Little	8
160.5816666666667	0	n/a	96350	KeyDown	41324	3	Middle	8
160.7216666666667	0	n/a	96434	KeyDown	41324	2	Ring	8
160.8450000000000	0	n/a	96508	KeyDown	41324	4	Index	8
161.0816666666667	0	n/a	96650	KeyDown	41324	1	Little	8
161.2950000000000	0	n/a	96778	KeyDown	41324	3	Middle	8
161.4516666666667	0	n/a	96872	KeyDown	41324	2	Ring	8
161.5983333333334	0	n/a	96960	KeyDown	41324	4	Index	8
161.7700000000000	0	n/a	97063	KeyDown	41324	4	Index	8
161.8966666666667	0	n/a	97139	KeyDown	41324	1	Little	8
162.0800000000000	0	n/a	97249	KeyDown	41324	2	Ring	8
162.1150000000000	0	n/a	97270	KeyDown	41324	3	Middle	8
162.2266666666667	0	n/a	97337	KeyDown	41324	2	Ring	8
162.3666666666667	0	n/a	97421	KeyDown	41324	4	Index	8
162.5883333333333	0	n/a	97554	KeyDown	41324	4	Index	8
162.6950000000000	0	n/a	97618	StopPractice	41324	n/a	n/a	8
162.6966666666667	0	n/a	97619	StartRest	XXXXX	n/a	n/a	8
172.7383333333333	0	n/a	103644	StopRest	XXXXX	n/a	n/a	8
172.7400000000000	0	UPPT001	103645	StartPractice	41324	n/a	n/a	9
173.1766666666667	0	n/a	103907	KeyDown	41324	4	Index	9
173.2816666666667	0	n/a	103970	KeyDown	41324	1	Little	9
173.4433333333334	0	n/a	104067	KeyDown	41324	3	Middle	9
173.5566666666667	0	n/a	104135	KeyDown	41324	2	Ring	9
173.7316666666667	0	n/a	104240	KeyDown	41324	4	Index	9
173.9216666666667	0	n/a	104354	KeyDown	41324	1	Little	9
174.1033333333334	0	n/a	104463	KeyDown	41324	3	Middle	9
174.2166666666667	0	n/a	104531	KeyDown	41324	2	Ring	9
174.3650000000000	0	n/a	104620	KeyDown	41324	4	Index	9
174.5533333333333	0	n/a	104733	KeyDown	41324	4	Index	9
174.6333333333334	0	n/a	104781	KeyDown	41324	1	Little	9
174.8283333333333	0	n/a	104898	KeyDown	41324	3	Middle	9
174.8333333333333	0	n/a	104901	KeyDown	41324	2	Ring	9
175.0166666666667	0	n/a	105011	KeyDown	41324	2	Ring	9
175.1316666666667	0	n/a	105080	KeyDown	41324	4	Index	9
175.3033333333333	0	n/a	105183	KeyDown	41324	4	Index	9
175.4116666666667	0	n/a	105248	KeyDown	41324	1	Little	9
175.5833333333333	0	n/a	105351	KeyDown	41324	3	Middle	9
175.6883333333333	0	n/a	105414	KeyDown	41324	2	Ring	9
175.8516666666667	0	n/a	105512	KeyDown	41324	4	Index	9
176.0400000000000	0	n/a	105625	KeyDown	41324	4	Index	9
176.1166666666667	0	n/a	105671	KeyDown	41324	1	Little	9
176.3433333333333	0	n/a	105807	KeyDown	41324	3	Middle	9
176.4616666666667	0	n/a	105878	KeyDown	41324	2	Ring	9
176.5983333333334	0	n/a	105960	KeyDown	41324	4	Index	9
176.7866666666667	0	n/a	106073	KeyDown	41324	4	Index	9
176.9133333333334	0	n/a	106149	KeyDown	41324	1	Little	9
177.0966666666667	0	n/a	106259	KeyDown	41324	3	Middle	9
177.2250000000000	0	n/a	106336	KeyDown	41324	2	Ring	9
177.3350000000000	0	n/a	106402	KeyDown	41324	4	Index	9
177.5566666666667	0	n/a	106535	KeyDown	41324	4	Index	9
177.7166666666667	0	n/a	106631	KeyDown	41324	1	Little	9
177.8716666666667	0	n/a	106724	KeyDown	41324	3	Middle	9
177.9766666666667	0	n/a	106787	KeyDown	41324	2	Ring	9
178.0816666666667	0	n/a	106850	KeyDown	41324	4	Index	9
178.3150000000000	0	n/a	106990	KeyDown	41324	1	Little	9
178.5366666666667	0	n/a	107123	KeyDown	41324	3	Middle	9
178.6483333333333	0	n/a	107190	KeyDown	41324	2	Ring	9
178.8466666666667	0	n/a	107309	KeyDown	41324	4	Index	9
179.0466666666667	0	n/a	107429	KeyDown	41324	4	Index	9
179.1783333333333	0	n/a	107508	KeyDown	41324	1	Little	9
179.4283333333333	0	n/a	107658	KeyDown	41324	3	Middle	9
179.5633333333333	0	n/a	107739	KeyDown	41324	2	Ring	9
179.6966666666667	0	n/a	107819	KeyDown	41324	4	Index	9
179.8850000000000	0	n/a	107932	KeyDown	41324	4	Index	9
180.0733333333334	0	n/a	108045	KeyDown	41324	1	Little	9
180.2166666666667	0	n/a	108131	KeyDown	41324	3	Middle	9
180.3516666666667	0	n/a	108212	KeyDown	41324	2	Ring	9
180.4766666666667	0	n/a	108287	KeyDown	41324	4	Index	9
180.6600000000000	0	n/a	108397	KeyDown	41324	4	Index	9
180.8133333333333	0	n/a	108489	KeyDown	41324	1	Little	9
180.9866666666667	0	n/a	108593	KeyDown	41324	3	Middle	9
181.1016666666667	0	n/a	108662	KeyDown	41324	2	Ring	9
181.2616666666667	0	n/a	108758	KeyDown	41324	4	Index	9
181.4600000000000	0	n/a	108877	KeyDown	41324	4	Index	9
181.6233333333333	0	n/a	108975	KeyDown	41324	1	Little	9
181.7833333333333	0	n/a	109071	KeyDown	41324	3	Middle	9
181.9066666666667	0	n/a	109145	KeyDown	41324	2	Ring	9
182.0383333333334	0	n/a	109224	KeyDown	41324	4	Index	9
182.2433333333333	0	n/a	109347	KeyDown	41324	4	Index	9
182.3666666666667	0	n/a	109421	KeyDown	41324	1	Little	9
182.5266666666667	0	n/a	109517	KeyDown	41324	3	Middle	9
182.6450000000000	0	n/a	109588	KeyDown	41324	2	Ring	9
182.7866666666667	0	n/a	109673	StopPractice	41324	n/a	n/a	9
182.7883333333334	0	n/a	109674	StartRest	XXXXX	n/a	n/a	9
192.8316666666667	0	n/a	115700	StopRest	XXXXX	n/a	n/a	9
