onset	duration	channel	onset_sample_idx	event_type	target_sequence	keypress_id	finger_label	trial_number
100.2033333333333	0	UPPT001	60123	StartPractice	41324	n/a	n/a	1
101.4716666666667	0	n/a	60884	KeyDown	41324	4	Index	1
101.6500000000000	0	n/a	60991	KeyDown	41324	1	Little	1
101.9166666666667	0	n/a	61151	KeyDown	41324	3	Middle	1
102.1300000000000	0	n/a	61279	KeyDown	41324	2	Ring	1
102.3683333333333	0	n/a	61422	KeyDown	41324	4	Index	1
103.2366666666667	0	n/a	61943	KeyDown	41324	4	Index	1
103.5200000000000	0	n/a	62113	KeyDown	41324	1	Little	1
103.8000000000000	0	n/a	62281	KeyDown	41324	3	Middle	1
103.9766666666667	0	n/a	62387	KeyDown	41324	2	Ring	1
104.1750000000000	0	n/a	62506	KeyDown	41324	4	Index	1
104.6716666666667	0	n/a	62804	KeyDown	41324	4	Index	1
104.9650000000000	0	n/a	62980	KeyDown	41324	1	Little	1
105.2250000000000	0	n/a	63136	KeyDown	41324	3	Middle	1
105.4016666666667	0	n/a	63242	KeyDown	41324	2	Ring	1
105.5800000000000	0	n/a	63349	KeyDown	41324	4	Index	1
106.1050000000000	0	n/a	63664	KeyDown	41324	4	Index	1
106.5116666666667	0	n/a	63908	KeyDown	41324	1	Little	1
106.8650000000000	0	n/a	64120	KeyDown	41324	3	Middle	1
107.1016666666667	0	n/a	64262	KeyDown	41324	2	Ring	1
107.3483333333333	0	n/a	64410	KeyDown	41324	4	Index	1
107.8150000000000	0	n/a	64690	KeyDown	41324	4	Index	1
108.0416666666667	0	n/a	64826	KeyDown	41324	1	Little	1
108.3366666666667	0	n/a	65003	KeyDown	41324	3	Middle	1
108.5516666666667	0	n/a	65132	KeyDown	41324	2	Ring	1
108.8916666666667	0	n/a	65336	KeyDown	41324	4	Index	1
109.4516666666667	0	n/a	65672	KeyDown	41324	4	Index	1
109.9083333333333	0	n/a	65946	KeyDown	41324	1	Little	1
109.9866666666667	0	n/a	65993	KeyDown	41324	2	Ring	1
110.2500000000000	0	n/a	66151	StopPractice	41324	n/a	n/a	1
110.2516666666667	0	n/a	66152	StartRest	XXXXX	n/a	n/a	1
120.2633333333333	0	n/a	72159	StopRest	XXXXX	n/a	n/a	1
120.2650000000000	0	UPPT001	72160	StartPractice	41324	n/a	n/a	2
121.2033333333333	0	n/a	72723	KeyDown	41324	4	Index	2
121.3600000000000	0	n/a	72817	KeyDown	41324	1	Little	2
121.5466666666667	0	n/a	72929	KeyDown	41324	3	Middle	2
121.7066666666667	0	n/a	73025	KeyDown	41324	2	Ring	2
121.8550000000000	0	n/a	73114	KeyDown	41324	4	Index	2
122.0883333333333	0	n/a	73254	KeyDown	41324	1	Little	2
122.2633333333333	0	n/a	73359	KeyDown	41324	3	Middle	2
122.4583333333333	0	n/a	73476	KeyDown	41324	2	Ring	2
122.6783333333333	0	n/a	73608	KeyDown	41324	4	Index	2
122.9983333333333	0	n/a	73800	KeyDown	41324	2	Ring	2
123.1616666666667	0	n/a	73898	KeyDown	41324	1	Little	2
123.4333333333333	0	n/a	74061	KeyDown	41324	3	Middle	2
123.6133333333333	0	n/a	74169	KeyDown	41324	2	Ring	2
123.8766666666667	0	n/a	74327	KeyDown	41324	4	Index	2
124.1683333333333	0	n/a	74502	KeyDown	41324	1	Little	2
124.3916666666667	0	n/a	74636	KeyDown	41324	3	Middle	2
124.5250000000000	0	n/a	74716	KeyDown	41324	2	Ring	2
124.7266666666667	0	n/a	74837	KeyDown	41324	4	Index	2
124.9866666666667	0	n/a	74993	KeyDown	41324	1	Little	2
125.2400000000000	0	n/a	75145	KeyDown	41324	3	Middle	2
125.4316666666667	0	n/a	75260	KeyDown	41324	2	Ring	2
125.6616666666667	0	n/a	75398	KeyDown	41324	4	Index	2
125.9083333333333	0	n/a	75546	KeyDown	41324	1	Little	2
126.1033333333333	0	n/a	75663	KeyDown	41324	3	Middle	2
126.2583333333333	0	n/a	75756	KeyDown	41324	2	Ring	2
126.4316666666667	0	n/a	75860	KeyDown	41324	4	Index	2
126.6500000000000	0	n/a	75991	KeyDown	41324	1	Little	2
126.9183333333333	0	n/a	76152	KeyDown	41324	3	Middle	2
127.0650000000000	0	n/a	76240	KeyDown	41324	2	Ring	2
127.2833333333333	0	n/a	76371	KeyDown	41324	4	Index	2
127.4816666666667	0	n/a	76490	KeyDown	41324	1	Little	2
127.7300000000000	0	n/a	76639	KeyDown	41324	3	Middle	2
127.9133333333333	0	n/a	76749	KeyDown	41324	2	Ring	2
128.0466666666667	0	n/a	76829	KeyDown	41324	4	Index	2
128.2566666666667	0	n/a	76955	KeyDown	41324	1	Little	2
128.4916666666667	0	n/a	77096	KeyDown	41324	3	Middle	2
128.6400000000000	0	n/a	77185	KeyDown	41324	2	Ring	2
128.8316666666667	0	n/a	77300	KeyDown	41324	4	Index	2
129.0550000000000	0	n/a	77434	KeyDown	41324	1	Little	2
129.2766666666667	0	n/a	77567	KeyDown	41324	3	Middle	2
129.4616666666667	0	n/a	77678	KeyDown	41324	2	Ring	2
129.6416666666667	0	n/a	77786	KeyDown	41324	4	Index	2
130.1750000000000	0	n/a	78106	KeyDown	41324	4	Index	2
130.3116666666667	0	n/a	78188	StopPractice	41324	n/a	n/a	2
130.3133333333333	0	n/a	78189	StartRest	XXXXX	n/a	n/a	2
140.3366666666667	0	n/a	84203	StopRest	XXXXX	n/a	n/a	2
140.3383333333333	0	UPPT001	84204	StartPractice	41324	n/a	n/a	3
141.1600000000000	0	n/a	84697	KeyDown	41324	4	Index	3
141.2966666666667	0	n/a	84779	KeyDown	41324	1	Little	3
141.4866666666667	0	n/a	84893	KeyDown	41324	3	Middle	3
141.6800000000000	0	n/a	85009	KeyDown	41324	2	Ring	3
141.8233333333334	0	n/a	85095	KeyDown	41324	4	Index	3
142.0650000000000	0	n/a	85240	KeyDown	41324	4	Index	3
142.2350000000000	0	n/a	85342	KeyDown	41324	1	Little	3
142.4250000000000	0	n/a	85456	KeyDown	41324	3	Middle	3
142.5850000000000	0	n/a	85552	KeyDown	41324	2	Ring	3
142.7550000000000	0	n/a	85654	KeyDown	41324	4	Index	3
142.9816666666667	0	n/a	85790	KeyDown	41324	4	Index	3
143.1600000000000	0	n/a	85897	KeyDown	41324	1	Little	3
143.3516666666667	0	n/a	86012	KeyDown	41324	3	Middle	3
143.5300000000000	0	n/a	86119	KeyDown	41324	2	Ring	3
143.6400000000000	0	n/a	86185	KeyDown	41324	4	Index	3
143.9200000000000	0	n/a	86353	KeyDown	41324	4	Index	3
144.0850000000000	0	n/a	86452	KeyDown	41324	1	Little	3
144.4450000000000	0	n/a	86668	KeyDown	41324	2	Ring	3
144.6516666666667	0	n/a	86792	KeyDown	41324	2	Ring	3
144.8100000000000	0	n/a	86887	KeyDown	41324	4	Index	3
145.2050000000000	0	n/a	87124	KeyDown	41324	4	Index	3
145.3533333333334	0	n/a	87213	KeyDown	41324	1	Little	3
145.5950000000000	0	n/a	87358	KeyDown	41324	3	Middle	3
145.8150000000000	0	n/a	87490	KeyDown	41324	2	Ring	3
145.9616666666667	0	n/a	87578	KeyDown	41324	4	Index	3
146.2000000000000	0	n/a	87721	KeyDown	41324	4	Index	3
146.4083333333333	0	n/a	87846	KeyDown	41324	1	Little	3
146.5800000000000	0	n/a	87949	KeyDown	41324	3	Middle	3
146.7750000000000	0	n/a	88066	KeyDown	41324	2	Ring	3
146.9166666666667	0	n/a	88151	KeyDown	41324	4	Index	3
147.1700000000000	0	n/a	88303	KeyDown	41324	4	Index	3
147.3216666666667	0	n/a	88394	KeyDown	41324	1	Little	3
147.5266666666667	0	n/a	88517	KeyDown	41324	3	Middle	3
147.7416666666667	0	n/a	88646	KeyDown	41324	2	Ring	3
147.8583333333333	0	n/a	88716	KeyDown	41324	4	Index	3
148.1916666666667	0	n/a	88916	KeyDown	41324	4	Index	3
148.3766666666667	0	n/a	89027	KeyDown	41324	1	Little	3
148.5900000000000	0	n/a	89155	KeyDown	41324	3	Middle	3
148.7550000000000	0	n/a	89254	KeyDown	41324	2	Ring	3
148.9200000000000	0	n/a	89353	KeyDown	41324	4	Index	3
149.1683333333334	0	n/a	89502	KeyDown	41324	4	Index	3
149.3500000000000	0	n/a	89611	KeyDown	41324	1	Little	3
149.5500000000000	0	n/a	89731	KeyDown	41324	3	Middle	3
149.7216666666667	0	n/a	89834	KeyDown	41324	2	Ring	3
149.8750000000000	0	n/a	89926	KeyDown	41324	4	Index	3
150.0800000000000	0	n/a	90049	KeyDown	41324	1	Little	3
150.1650000000000	0	n/a	90100	KeyDown	41324	4	Index	3
150.3850000000000	0	n/a	90232	StopPractice	41324	n/a	n/a	3
150.3866666666667	0	n/a	90233	StartRest	XXXXX	n/a	n/a	3
160.4116666666667	0	n/a	96248	StopRest	XXXXX	n/a	n/a	3
160.4133333333334	0	UPPT001	96249	StartPractice	41324	n/a	n/a	4
161.1950000000000	0	n/a	96718	KeyDown	41324	4	Index	4
161.3616666666667	0	n/a	96818	KeyDown	41324	1	Little	4
161.5333333333333	0	n/a	96921	KeyDown	41324	3	Middle	4
161.6700000000000	0	n/a	97003	KeyDown	41324	2	Ring	4
161.8650000000000	0	n/a	97120	KeyDown	41324	4	Index	4
162.0700000000000	0	n/a	97243	KeyDown	41324	4	Index	4
162.2466666666667	0	n/a	97349	KeyDown	41324	1	Little	4
162.4300000000000	0	n/a	97459	KeyDown	41324	3	Middle	4
162.5700000000000	0	n/a	97543	KeyDown	41324	2	Ring	4
162.7166666666667	0	n/a	97631	KeyDown	41324	4	Index	4
162.9766666666667	0	n/a	97787	KeyDown	41324	4	Index	4
163.1150000000000	0	n/a	97870	KeyDown	41324	1	Little	4
163.2666666666667	0	n/a	97961	KeyDown	41324	3	Middle	4
163.4283333333333	0	n/a	98058	KeyDown	41324	2	Ring	4
163.5683333333334	0	n/a	98142	KeyDown	41324	4	Index	4
163.9050000000000	0	n/a	98344	KeyDown	41324	4	Index	4
164.0383333333334	0	n/a	98424	KeyDown	41324	1	Little	4
164.2683333333333	0	n/a	98562	KeyDown	41324	3	Middle	4
164.4233333333333	0	n/a	98655	KeyDown	41324	2	Ring	4
164.5700000000000	0	n/a	98743	KeyDown	41324	4	Index	4
164.7950000000000	0	n/a	98878	KeyDown	41324	4	Index	4
164.9166666666667	0	n/a	98951	KeyDown	41324	1	Little	4
165.1350000000000	0	n/a	99082	KeyDown	41324	3	Middle	4
165.2650000000000	0	n/a	99160	KeyDown	41324	2	Ring	4
165.4650000000000	0	n/a	99280	KeyDown	41324	4	Index	4
165.6966666666667	0	n/a	99419	KeyDown	41324	4	Index	4
165.8816666666667	0	n/a	99530	KeyDown	41324	1	Little	4
166.0816666666667	0	n/a	99650	KeyDown	41324	3	Middle	4
166.2400000000000	0	n/a	99745	KeyDown	41324	2	Ring	4
166.3733333333333	0	n/a	99825	KeyDown	41324	4	Index	4
166.6300000000000	0	n/a	99979	KeyDown	41324	4	Index	4
166.8033333333333	0	n/a	100083	KeyDown	41324	1	Little	4
166.9866666666667	0	n/a	100193	KeyDown	41324	3	Middle	4
167.1716666666667	0	n/a	100304	KeyDown	41324	2	Ring	4
167.3900000000000	0	n/a	100435	KeyDown	41324	4	Index	4
167.7316666666667	0	n/a	100640	KeyDown	41324	1	Little	4
168.1400000000000	0	n/a	100885	KeyDown	41324	1	Little	4
168.3916666666667	0	n/a	101036	KeyDown	41324	3	Middle	4
168.5316666666667	0	n/a	101120	KeyDown	41324	2	Ring	4
168.7416666666667	0	n/a	101246	KeyDown	41324	4	Index	4
168.9600000000000	0	n/a	101377	KeyDown	41324	4	Index	4
169.1516666666667	0	n/a	101492	KeyDown	41324	1	Little	4
169.3250000000000	0	n/a	101596	KeyDown	41324	3	Middle	4
169.4933333333333	0	n/a	101697	KeyDown	41324	2	Ring	4
169.6683333333334	0	n/a	101802	KeyDown	41324	4	Index	4
169.9066666666667	0	n/a	101945	KeyDown	41324	4	Index	4
170.0916666666667	0	n/a	102056	KeyDown	41324	1	Little	4
170.2800000000000	0	n/a	102169	KeyDown	41324	3	Middle	4
170.4600000000000	0	n/a	102277	StopPractice	41324	n/a	n/a	4
170.4616666666667	0	n/a	102278	StartRest	XXXXX	n/a	n/a	4
180.5033333333334	0	n/a	108303	StopRest	XXXXX	n/a	n/a	4
180.5050000000000	0	UPPT001	108304	StartPractice	41324	n/a	n/a	5
180.9666666666667	0	n/a	108581	KeyDown	41324	4	Index	5
181.1516666666667	0	n/a	108692	KeyDown	41324	1	Little	5
181.3250000000000	0	n/a	108796	KeyDown	41324	3	Middle	5
181.5233333333333	0	n/a	108915	KeyDown	41324	2	Ring	5
181.6616666666667	0	n/a	108998	KeyDown	41324	4	Index	5
181.8900000000000	0	n/a	109135	KeyDown	41324	4	Index	5
182.0566666666667	0	n/a	109235	KeyDown	41324	1	Little	5
182.2033333333333	0	n/a	109323	KeyDown	41324	3	Middle	5
182.3700000000000	0	n/a	109423	KeyDown	41324	2	Ring	5
182.4966666666667	0	n/a	109499	KeyDown	41324	4	Index	5
182.7083333333333	0	n/a	109626	KeyDown	41324	4	Index	5
182.8650000000000	0	n/a	109720	KeyDown	41324	1	Little	5
183.0450000000000	0	n/a	109828	KeyDown	41324	3	Middle	5
183.1966666666667	0	n/a	109919	KeyDown	41324	2	Ring	5
183.3033333333333	0	n/a	109983	KeyDown	41324	4	Index	5
183.5283333333333	0	n/a	110118	KeyDown	41324	4	Index	5
183.6716666666667	0	n/a	110204	KeyDown	41324	1	Little	5
183.8583333333333	0	n/a	110316	KeyDown	41324	3	Middle	5
184.0316666666667	0	n/a	110420	KeyDown	41324	2	Ring	5
184.1516666666667	0	n/a	110492	KeyDown	41324	4	Index	5
184.3800000000000	0	n/a	110629	KeyDown	41324	4	Index	5
184.5233333333333	0	n/a	110715	KeyDown	41324	1	Little	5
184.6933333333334	0	n/a	110817	KeyDown	41324	3	Middle	5
184.8833333333334	0	n/a	110931	KeyDown	41324	2	Ring	5
185.0216666666667	0	n/a	111014	KeyDown	41324	4	Index	5
185.2500000000000	0	n/a	111151	KeyDown	41324	4	Index	5
185.4083333333333	0	n/a	111246	KeyDown	41324	4	Index	5
185.4983333333333	0	n/a	111300	KeyDown	41324	1	Little	5
185.7733333333333	0	n/a	111465	KeyDown	41324	3	Middle	5
185.8966666666667	0	n/a	111539	KeyDown	41324	2	Ring	5
186.1100000000000	0	n/a	111667	KeyDown	41324	4	Index	5
186.3333333333333	0	n/a	111801	KeyDown	41324	4	Index	5
186.5383333333334	0	n/a	111924	KeyDown	41324	1	Little	5
186.7183333333333	0	n/a	112032	KeyDown	41324	3	Middle	5
186.8566666666667	0	n/a	112115	KeyDown	41324	2	Ring	5
187.0300000000000	0	n/a	112219	KeyDown	41324	4	Index	5
187.2500000000000	0	n/a	112351	KeyDown	41324	4	Index	5
187.3933333333333	0	n/a	112437	KeyDown	41324	1	Little	5
187.5716666666667	0	n/a	112544	KeyDown	41324	3	Middle	5
187.7533333333334	0	n/a	112653	KeyDown	41324	2	Ring	5
187.8900000000000	0	n/a	112735	KeyDown	41324	4	Index	5
188.1383333333333	0	n/a	112884	KeyDown	41324	4	Index	5
188.3433333333333	0	n/a	113007	KeyDown	41324	1	Little	5
188.5200000000000	0	n/a	113113	KeyDown	41324	3	Middle	5
188.7066666666667	0	n/a	113225	KeyDown	41324	2	Ring	5
188.8066666666667	0	n/a	113285	KeyDown	41324	4	Index	5
189.0466666666667	0	n/a	113429	KeyDown	41324	4	Index	5
189.2100000000000	0	n/a	113527	KeyDown	41324	1	Little	5
189.3933333333333	0	n/a	113637	KeyDown	41324	3	Middle	5
189.5900000000000	0	n/a	113755	KeyDown	41324	2	Ring	5
189.7366666666667	0	n/a	113843	KeyDown	41324	4	Index	5
189.9400000000000	0	n/a	113965	KeyDown	41324	4	Index	5
190.1500000000000	0	n/a	114091	KeyDown	41324	1	Little	5
190.2750000000000	0	n/a	114166	KeyDown	41324	3	Middle	5
190.4983333333333	0	n/a	114300	KeyDown	41324	2	Ring	5
190.5516666666667	0	n/a	114332	StopPractice	41324	n/a	n/a	5
190.5533333333333	0	n/a	114333	StartRest	XXXXX	n/a	n/a	5
200.5950000000000	0	n/a	120358	StopRest	XXXXX	n/a	n/a	5
200.5966666666667	0	UPPT001	120359	StartPractice	41324	n/a	n/a	6
201.0983333333334	0	n/a	120660	KeyDown	41324	4	Index	6
201.2483333333333	0	n/a	120750	KeyDown	41324	1	Little	6
201.4233333333333	0	n/a	120855	KeyDown	41324	3	Middle	6
201.6183333333333	0	n/a	120972	KeyDown	41324	2	Ring	6
201.7450000000000	0	n/a	121048	KeyDown	41324	4	Index	6
201.9833333333333	0	n/a	121191	KeyDown	41324	4	Index	6
202.1100000000000	0	n/a	121267	KeyDown	41324	1	Little	6
202.2966666666667	0	n/a	121379	KeyDown	41324	3	Middle	6
202.4400000000000	0	n/a	121465	KeyDown	41324	2	Ring	6
202.5683333333334	0	n/a	121542	KeyDown	41324	4	Index	6
202.7850000000000	0	n/a	121672	KeyDown	41324	4	Index	6
202.9583333333333	0	n/a	121776	KeyDown	41324	1	Little	6
203.1316666666667	0	n/a	121880	KeyDown	41324	3	Middle	6
203.3050000000000	0	n/a	121984	KeyDown	41324	2	Ring	6
203.4216666666667	0	n/a	122054	KeyDown	41324	4	Index	6
203.6800000000000	0	n/a	122209	KeyDown	41324	4	Index	6
203.8383333333333	0	n/a	122304	KeyDown	41324	1	Little	6
204.0150000000000	0	n/a	122410	KeyDown	41324	3	Middle	6
204.2050000000000	0	n/a	122524	KeyDown	41324	2	Ring	6
204.2983333333333	0	n/a	122580	KeyDown	41324	4	Index	6
204.5300000000000	0	n/a	122719	KeyDown	41324	4	Index	6
204.7033333333333	0	n/a	122823	KeyDown	41324	1	Little	6
204.8733333333333	0	n/a	122925	KeyDown	41324	3	Middle	6
205.0433333333334	0	n/a	123027	KeyDown	41324	2	Ring	6
205.1566666666667	0	n/a	123095	KeyDown	41324	4	Index	6
205.3900000000000	0	n/a	123235	KeyDown	41324	4	Index	6
205.5650000000000	0	n/a	123340	KeyDown	41324	1	Little	6
205.7433333333333	0	n/a	123447	KeyDown	41324	3	Middle	6
205.9033333333333	0	n/a	123543	KeyDown	41324	2	Ring	6
206.0350000000000	0	n/a	123622	KeyDown	41324	4	Index	6
206.2700000000000	0	n/a	123763	KeyDown	41324	4	Index	6
206.4033333333333	0	n/a	123843	KeyDown	41324	1	Little	6
206.6133333333333	0	n/a	123969	KeyDown	41324	3	Middle	6
206.7916666666667	0	n/a	124076	KeyDown	41324	2	Ring	6
206.9300000000000	0	n/a	124159	KeyDown	41324	4	Index	6
207.1433333333333	0	n/a	124287	KeyDown	41324	4	Index	6
207.2733333333333	0	n/a	124365	KeyDown	41324	1	Little	6
207.5033333333334	0	n/a	124503	KeyDown	41324	3	Middle	6
207.6500000000000	0	n/a	124591	KeyDown	41324	2	Ring	6
207.8016666666667	0	n/a	124682	KeyDown	41324	4	Index	6
208.0283333333333	0	n/a	124818	KeyDown	41324	4	Index	6
208.1683333333334	0	n/a	124902	KeyDown	41324	1	Little	6
208.3733333333333	0	n/a	125025	KeyDown	41324	3	Middle	6
208.5433333333334	0	n/a	125127	KeyDown	41324	2	Ring	6
208.6783333333333	0	n/a	125208	KeyDown	41324	4	Index	6
208.9150000000000	0	n/a	125350	KeyDown	41324	4	Index	6
209.0583333333333	0	n/a	125436	KeyDown	41324	1	Little	6
209.2700000000000	0	n/a	125563	KeyDown	41324	3	Middle	6
209.4466666666667	0	n/a	125669	KeyDown	41324	2	Ring	6
209.5916666666667	0	n/a	125756	KeyDown	41324	4	Index	6
209.8200000000000	0	n/a	125893	KeyDown	41324	4	Index	6
210.0133333333333	0	n/a	126009	KeyDown	41324	1	Little	6
210.1833333333333	0	n/a	126111	KeyDown	41324	3	Middle	6
210.4150000000000	0	n/a	126250	KeyDown	41324	2	Ring	6
210.5900000000000	0	n/a	126355	KeyDown	41324	4	Index	6
210.6433333333333	0	n/a	126387	StopPractice	41324	n/a	n/a	6
210.6450000000000	0	n/a	126388	StartRest	XXXXX	n/a	n/a	6
220.6866666666667	0	n/a	132413	StopRest	XXXXX	n/a	n/a	6
220.6883333333334	0	UPPT001	132414	StartPractice	41324	n/a	n/a	7
221.0766666666667	0	n/a	132647	KeyDown	41324	4	Index	7
221.2300000000000	0	n/a	132739	KeyDown	41324	1	Little	7
221.4133333333334	0	n/a	132849	KeyDown	41324	3	Middle	7
221.6383333333333	0	n/a	132984	KeyDown	41324	2	Ring	7
221.7466666666667	0	n/a	133049	KeyDown	41324	4	Index	7
221.9750000000000	0	n/a	133186	KeyDown	41324	4	Index	7
222.1400000000000	0	n/a	133285	KeyDown	41324	1	Little	7
222.2950000000000	0	n/a	133378	KeyDown	41324	3	Middle	7
222.4600000000000	0	n/a	133477	KeyDown	41324	2	Ring	7
222.5766666666667	0	n/a	133547	KeyDown	41324	4	Index	7
222.8083333333333	0	n/a	133686	KeyDown	41324	4	Index	7
223.0500000000000	0	n/a	133831	KeyDown	41324	1	Little	7
223.3316666666667	0	n/a	134000	KeyDown	41324	4	Index	7
223.8783333333334	0	n/a	134328	KeyDown	41324	4	Index	7
224.0116666666667	0	n/a	134408	KeyDown	41324	1	Little	7
224.2400000000000	0	n/a	134545	KeyDown	41324	3	Middle	7
224.4200000000000	0	n/a	134653	KeyDown	41324	2	Ring	7
224.5433333333334	0	n/a	134727	KeyDown	41324	4	Index	7
224.7633333333333	0	n/a	134859	KeyDown	41324	4	Index	7
224.9166666666667	0	n/a	134951	KeyDown	41324	1	Little	7
225.1166666666667	0	n/a	135071	KeyDown	41324	3	Middle	7
225.2633333333333	0	n/a	135159	KeyDown	41324	2	Ring	7
225.3733333333333	0	n/a	135225	KeyDown	41324	4	Index	7
225.7266666666667	0	n/a	135437	KeyDown	41324	4	Index	7
225.9950000000000	0	n/a	135598	KeyDown	41324	1	Little	7
226.2300000000000	0	n/a	135739	KeyDown	41324	3	Middle	7
226.3933333333333	0	n/a	135837	KeyDown	41324	2	Ring	7
226.5133333333333	0	n/a	135909	KeyDown	41324	4	Index	7
227.3366666666667	0	n/a	136403	KeyDown	41324	4	Index	7
227.5950000000000	0	n/a	136558	KeyDown	41324	1	Little	7
228.0366666666667	0	n/a	136823	KeyDown	41324	3	Middle	7
228.2166666666667	0	n/a	136931	KeyDown	41324	3	Middle	7
228.4833333333333	0	n/a	137091	KeyDown	41324	2	Ring	7
228.8100000000000	0	n/a	137287	KeyDown	41324	4	Index	7
229.0216666666667	0	n/a	137414	KeyDown	41324	4	Index	7
229.2066666666667	0	n/a	137525	KeyDown	41324	1	Little	7
229.4200000000000	0	n/a	137653	KeyDown	41324	3	Middle	7
229.6933333333334	0	n/a	137817	KeyDown	41324	2	Ring	7
229.8216666666667	0	n/a	137894	KeyDown	41324	4	Index	7
230.0333333333334	0	n/a	138021	KeyDown	41324	4	Index	7
230.2300000000000	0	n/a	138139	KeyDown	41324	1	Little	7
230.5050000000000	0	n/a	138304	KeyDown	41324	3	Middle	7
230.6683333333334	0	n/a	138402	KeyDown	41324	2	Ring	7
230.7350000000000	0	n/a	138442	StopPractice	41324	n/a	n/a	7
230.7366666666667	0	n/a	138443	StartRest	XXXXX	n/a	n/a	7
240.7600000000000	0	n/a	144457	StopRest	XXXXX	n/a	n/a	7
240.7616666666667	0	UPPT001	144458	StartPractice	41324	n/a	n/a	8
241.1450000000000	0	n/a	144688	KeyDown	41324	4	Index	8
241.3100000000000	0	n/a	144787	KeyDown	41324	1	Little	8
241.5250000000000	0	n/a	144916	KeyDown	41324	3	Middle	8
241.7100000000000	0	n/a	145027	KeyDown	41324	2	Ring	8
241.8400000000000	0	n/a	145105	KeyDown	41324	4	Index	8
242.0450000000000	0	n/a	145228	KeyDown	41324	4	Index	8
242.1533333333333	0	n/a	145293	KeyDown	41324	1	Little	8
242.3533333333334	0	n/a	145413	KeyDown	41324	2	Ring	8
242.3550000000000	0	n/a	145414	KeyDown	41324	3	Middle	8
242.5133333333333	0	n/a	145509	KeyDown	41324	2	Ring	8
242.6416666666667	0	n/a	145586	KeyDown	41324	4	Index	8
242.8433333333334	0	n/a	145707	KeyDown	41324	4	Index	8
243.1150000000000	0	n/a	145870	KeyDown	41324	1	Little	8
243.2983333333333	0	n/a	145980	KeyDown	41324	3	Middle	8
243.4600000000000	0	n/a	146077	KeyDown	41324	2	Ring	8
243.5900000000000	0	n/a	146155	KeyDown	41324	4	Index	8
243.8316666666667	0	n/a	146300	KeyDown	41324	4	Index	8
244.0000000000000	0	n/a	146401	KeyDown	41324	1	Little	8
244.2066666666667	0	n/a	146525	KeyDown	41324	3	Middle	8
244.3383333333333	0	n/a	146604	KeyDown	41324	2	Ring	8
244.4833333333333	0	n/a	146691	KeyDown	41324	4	Index	8
244.7150000000000	0	n/a	146830	KeyDown	41324	4	Index	8
244.9133333333334	0	n/a	146949	KeyDown	41324	1	Little	8
245.1166666666667	0	n/a	147071	KeyDown	41324	3	Middle	8
245.3233333333334	0	n/a	147195	KeyDown	41324	2	Ring	8
245.4883333333333	0	n/a	147294	KeyDown	41324	4	Index	8
245.9433333333334	0	n/a	147567	KeyDown	41324	4	Index	8
246.2233333333334	0	n/a	147735	KeyDown	41324	1	Little	8
246.4483333333334	0	n/a	147870	KeyDown	41324	3	Middle	8
246.6183333333333	0	n/a	147972	KeyDown	41324	2	Ring	8
246.7500000000000	0	n/a	148051	KeyDown	41324	4	Index	8
246.9666666666667	0	n/a	148181	KeyDown	41324	4	Index	8
247.1500000000000	0	n/a	148291	KeyDown	41324	1	Little	8
247.3450000000000	0	n/a	148408	KeyDown	41324	3	Middle	8
247.5300000000000	0	n/a	148519	KeyDown	41324	2	Ring	8
247.6900000000000	0	n/a	148615	KeyDown	41324	4	Index	8
247.9083333333334	0	n/a	148746	KeyDown	41324	4	Index	8
248.1583333333334	0	n/a	148896	KeyDown	41324	1	Little	8
248.3550000000000	0	n/a	149014	KeyDown	41324	3	Middle	8
248.5466666666667	0	n/a	149129	KeyDown	41324	2	Ring	8
248.7500000000000	0	n/a	149251	KeyDown	41324	4	Index	8
248.9900000000000	0	n/a	149395	KeyDown	41324	4	Index	8
249.2483333333334	0	n/a	149550	KeyDown	41324	1	Little	8
249.4533333333333	0	n/a	149673	KeyDown	41324	3	Middle	8
249.6500000000000	0	n/a	149791	KeyDown	41324	2	Ring	8
249.8050000000000	0	n/a	149884	KeyDown	41324	4	Index	8
250.0333333333334	0	n/a	150021	KeyDown	41324	4	Index	8
250.2350000000000	0	n/a	150142	KeyDown	41324	1	Little	8
250.4483333333334	0	n/a	150270	KeyDown	41324	3	Middle	8
250.5950000000000	0	n/a	150358	KeyDown	41324	2	Ring	8
250.7733333333333	0	n/a	150465	KeyDown	41324	4	Index	8
250.8083333333333	0	n/a	150486	StopPractice	41324	n/a	n/a	8
250.8100000000000	0	n/a	150487	StartRest	XXXXX	n/a	n/a	8
260.8516666666667	0	n/a	156512	StopRest	XXXXX	n/a	n/a	8
260.8533333333334	0	UPPT001	156513	StartPractice	41324	n/a	n/a	9
261.3766666666667	0	n/a	156827	KeyDown	41324	4	Index	9
261.5100000000000	0	n/a	156907	KeyDown	41324	1	Little	9
261.6950000000000	0	n/a	157018	KeyDown	41324	2	Ring	9
261.8416666666667	0	n/a	157106	KeyDown	41324	3	Middle	9
262.0383333333334	0	n/a	157224	KeyDown	41324	2	Ring	9
262.3033333333333	0	n/a	157383	KeyDown	41324	4	Index	9
262.5016666666667	0	n/a	157502	KeyDown	41324	4	Index	9
262.7850000000000	0	n/a	157672	KeyDown	41324	1	Little	9
262.8666666666667	0	n/a	157721	KeyDown	41324	2	Ring	9
262.9250000000000	0	n/a	157756	KeyDown	41324	3	Middle	9
263.1266666666667	0	n/a	157877	KeyDown	41324	2	Ring	9
263.3016666666667	0	n/a	157982	KeyDown	41324	4	Index	9
263.4916666666667	0	n/a	158096	KeyDown	41324	4	Index	9
263.6566666666667	0	n/a	158195	KeyDown	41324	1	Little	9
263.8366666666667	0	n/a	158303	KeyDown	41324	3	Middle	9
264.0066666666667	0	n/a	158405	KeyDown	41324	2	Ring	9
264.1366666666667	0	n/a	158483	KeyDown	41324	4	Index	9
264.3450000000000	0	n/a	158608	KeyDown	41324	4	Index	9
264.5250000000000	0	n/a	158716	KeyDown	41324	1	Little	9
264.6950000000000	0	n/a	158818	KeyDown	41324	3	Middle	9
264.8966666666667	0	n/a	158939	KeyDown	41324	2	Ring	9
265.0133333333334	0	n/a	159009	KeyDown	41324	4	Index	9
265.2300000000000	0	n/a	159139	KeyDown	41324	4	Index	9
265.3766666666667	0	n/a	159227	KeyDown	41324	1	Little	9
265.5816666666667	0	n/a	159350	KeyDown	41324	3	Middle	9
265.7516666666667	0	n/a	159452	KeyDown	41324	2	Ring	9
265.9233333333333	0	n/a	159555	KeyDown	41324	4	Index	9
266.1233333333333	0	n/a	159675	KeyDown	41324	4	Index	9
266.3150000000000	0	n/a	159790	KeyDown	41324	1	Little	9
266.4916666666667	0	n/a	159896	KeyDown	41324	3	Middle	9
266.4950000000000	0	n/a	159898	KeyDown	41324	2	Ring	9
266.7066666666667	0	n/a	160025	KeyDown	41324	2	Ring	9
266.8866666666667	0	n/a	160133	KeyDown	41324	4	Index	9
267.0950000000000	0	n/a	160258	KeyDown	41324	4	Index	9
267.3000000000000	0	n/a	160381	KeyDown	41324	1	Little	9
267.4950000000000	0	n/a	160498	KeyDown	41324	3	Middle	9
267.6766666666667	0	n/a	160607	KeyDown	41324	2	Ring	9
267.8216666666667	0	n/a	160694	KeyDown	41324	4	Index	9
268.0466666666667	0	n/a	160829	KeyDown	41324	4	Index	9
268.2833333333334	0	n/a	160971	KeyDown	41324	1	Little	9
268.4766666666667	0	n/a	161087	KeyDown	41324	3	Middle	9
268.6666666666667	0	n/a	161201	KeyDown	41324	2	Ring	9
268.8500000000000	0	n/a	161311	KeyDown	41324	4	Index	9
269.0550000000000	0	n/a	161434	KeyDown	41324	4	Index	9
269.2066666666667	0	n/a	161525	KeyDown	41324	1	Little	9
269.4150000000000	0	n/a	161650	KeyDown	41324	3	Middle	9
269.6200000000000	0	n/a	161773	KeyDown	41324	2	Ring	9
269.7833333333334	0	n/a	161871	KeyDown	41324	4	Index	9
270.0050000000000	0	n/a	162004	KeyDown	41324	4	Index	9
270.2183333333334	0	n/a	162132	KeyDown	41324	1	Little	9
270.4016666666667	0	n/a	162242	KeyDown	41324	3	Middle	9
270.5916666666667	0	n/a	162356	KeyDown	41324	2	Ring	9
270.6916666666667	0	n/a	162416	KeyDown	41324	4	Index	9
270.9000000000000	0	n/a	162541	StopPractice	41324	n/a	n/a	9
270.9016666666667	0	n/a	162542	StartRest	XXXXX	n/a	n/a	9
280.9433333333333	0	n/a	168567	StopRest	XXXXX	n/a	n/a	9
280.9450000000000	0	UPPT001	168568	StartPractice	41324	n/a	n/a	10
281.3433333333334	0	n/a	168807	KeyDown	41324	4	Index	10
281.5283333333334	0	n/a	168918	KeyDown	41324	1	Little	10
281.6850000000000	0	n/a	169012	KeyDown	41324	3	Middle	10
281.8916666666667	0	n/a	169136	KeyDown	41324	2	Ring	10
282.0266666666667	0	n/a	169217	KeyDown	41324	4	Index	10
282.2033333333334	0	n/a	169323	KeyDown	41324	4	Index	10
282.4033333333334	0	n/a	169443	KeyDown	41324	1	Little	10
282.5366666666667	0	n/a	169523	KeyDown	41324	3	Middle	10
282.6900000000000	0	n/a	169615	KeyDown	41324	2	Ring	10
282.8116666666667	0	n/a	169688	KeyDown	41324	4	Index	10
283.0350000000000	0	n/a	169822	KeyDown	41324	4	Index	10
283.2033333333334	0	n/a	169923	KeyDown	41324	1	Little	10
283.3816666666667	0	n/a	170030	KeyDown	41324	3	Middle	10
283.5366666666667	0	n/a	170123	KeyDown	41324	2	Ring	10
283.6666666666667	0	n/a	170201	KeyDown	41324	4	Index	10
283.8633333333333	0	n/a	170319	KeyDown	41324	4	Index	10
284.0516666666667	0	n/a	170432	KeyDown	41324	1	Little	10
284.1966666666667	0	n/a	170519	KeyDown	41324	3	Middle	10
284.3366666666667	0	n/a	170603	KeyDown	41324	2	Ring	10
284.4683333333334	0	n/a	170682	KeyDown	41324	4	Index	10
284.6733333333333	0	n/a	170805	KeyDown	41324	4	Index	10
284.8533333333334	0	n/a	170913	KeyDown	41324	1	Little	10
285.0183333333334	0	n/a	171012	KeyDown	41324	3	Middle	10
285.1600000000000	0	n/a	171097	KeyDown	41324	2	Ring	10
285.2833333333334	0	n/a	171171	KeyDown	41324	4	Index	10
285.4966666666667	0	n/a	171299	KeyDown	41324	4	Index	10
285.7100000000000	0	n/a	171427	KeyDown	41324	1	Little	10
285.8433333333334	0	n/a	171507	KeyDown	41324	3	Middle	10
285.9983333333333	0	n/a	171600	KeyDown	41324	2	Ring	10
286.1366666666667	0	n/a	171683	KeyDown	41324	4	Index	10
286.3333333333334	0	n/a	171801	KeyDown	41324	4	Index	10
286.5066666666667	0	n/a	171905	KeyDown	41324	4	Index	10
286.5583333333333	0	n/a	171936	KeyDown	41324	1	Little	10
286.7183333333334	0	n/a	172032	KeyDown	41324	3	Middle	10
286.8550000000000	0	n/a	172114	KeyDown	41324	2	Ring	10
286.9900000000000	0	n/a	172195	KeyDown	41324	3	Middle	10
287.0250000000000	0	n/a	172216	KeyDown	41324	4	Index	10
287.3800000000000	0	n/a	172429	KeyDown	41324	4	Index	10
287.5266666666667	0	n/a	172517	KeyDown	41324	1	Little	10
287.7183333333334	0	n/a	172632	KeyDown	41324	3	Middle	10
287.9016666666667	0	n/a	172742	KeyDown	41324	2	Ring	10
288.0383333333334	0	n/a	172824	KeyDown	41324	4	Index	10
288.2883333333334	0	n/a	172974	KeyDown	41324	4	Index	10
288.4716666666667	0	n/a	173084	KeyDown	41324	1	Little	10
288.6466666666667	0	n/a	173189	KeyDown	41324	3	Middle	10
288.8433333333334	0	n/a	173307	KeyDown	41324	2	Ring	10
288.9916666666667	0	n/a	173396	KeyDown	41324	4	Index	10
289.2316666666667	0	n/a	173540	KeyDown	41324	4	Index	10
289.4000000000000	0	n/a	173641	KeyDown	41324	1	Little	10
289.5866666666667	0	n/a	173753	KeyDown	41324	3	Middle	10
289.7516666666667	0	n/a	173852	KeyDown	41324	2	Ring	10
289.9033333333334	0	n/a	173943	KeyDown	41324	4	Index	10
290.1133333333333	0	n/a	174069	KeyDown	41324	4	Index	10
290.2633333333334	0	n/a	174159	KeyDown	41324	1	Little	10
290.4450000000000	0	n/a	174268	KeyDown	41324	3	Middle	10
290.5983333333334	0	n/a	174360	KeyDown	41324	2	Ring	10
290.7366666666667	0	n/a	174443	KeyDown	41324	4	Index	10
290.9583333333334	0	n/a	174576	KeyDown	41324	4	Index	10
290.9916666666667	0	n/a	174596	StopPractice	41324	n/a	n/a	10
290.9933333333333	0	n/a	174597	StartRest	XXXXX	n/a	n/a	10
301.0350000000000	0	n/a	180622	StopRest	XXXXX	n/a	n/a	10
301.0366666666667	0	UPPT001	180623	StartPractice	41324	n/a	n/a	11
301.4483333333334	0	n/a	180870	KeyDown	41324	4	Index	11
301.5933333333334	0	n/a	180957	KeyDown	41324	1	Little	11
301.7400000000000	0	n/a	181045	KeyDown	41324	2	Ring	11
301.7833333333334	0	n/a	181071	KeyDown	41324	3	Middle	11
302.0450000000000	0	n/a	181228	KeyDown	41324	2	Ring	11
302.1600000000000	0	n/a	181297	KeyDown	41324	4	Index	11
302.3566666666667	0	n/a	181415	KeyDown	41324	4	Index	11
302.5450000000000	0	n/a	181528	KeyDown	41324	1	Little	11
302.7066666666667	0	n/a	181625	KeyDown	41324	3	Middle	11
302.9133333333334	0	n/a	181749	KeyDown	41324	2	Ring	11
302.9983333333333	0	n/a	181800	KeyDown	41324	4	Index	11
303.2083333333334	0	n/a	181926	KeyDown	41324	4	Index	11
303.3883333333334	0	n/a	182034	KeyDown	41324	1	Little	11
303.5350000000000	0	n/a	182122	KeyDown	41324	3	Middle	11
303.7233333333334	0	n/a	182235	KeyDown	41324	2	Ring	11
303.8116666666667	0	n/a	182288	KeyDown	41324	4	Index	11
304.0433333333334	0	n/a	182427	KeyDown	41324	4	Index	11
304.2333333333333	0	n/a	182541	KeyDown	41324	1	Little	11
304.3883333333334	0	n/a	182634	KeyDown	41324	3	Middle	11
304.5983333333334	0	n/a	182760	KeyDown	41324	2	Ring	11
304.7083333333334	0	n/a	182826	KeyDown	41324	4	Index	11
304.9250000000000	0	n/a	182956	KeyDown	41324	4	Index	11
305.1400000000000	0	n/a	183085	KeyDown	41324	1	Little	11
305.3050000000000	0	n/a	183184	KeyDown	41324	3	Middle	11
305.4933333333333	0	n/a	183297	KeyDown	41324	2	Ring	11
305.5850000000000	0	n/a	183352	KeyDown	41324	4	Index	11
305.8033333333333	0	n/a	183483	KeyDown	41324	4	Index	11
306.0200000000000	0	n/a	183613	KeyDown	41324	1	Little	11
306.1883333333333	0	n/a	183714	KeyDown	41324	3	Middle	11
306.3866666666667	0	n/a	183833	KeyDown	41324	2	Ring	11
306.4766666666667	0	n/a	183887	KeyDown	41324	4	Index	11
306.6950000000000	0	n/a	184018	KeyDown	41324	4	Index	11
306.8933333333334	0	n/a	184137	KeyDown	41324	1	Little	11
307.0366666666667	0	n/a	184223	KeyDown	41324	3	Middle	11
307.2400000000000	0	n/a	184345	KeyDown	41324	2	Ring	11
307.3266666666667	0	n/a	184397	KeyDown	41324	4	Index	11
307.5250000000000	0	n/a	184516	KeyDown	41324	4	Index	11
307.7500000000000	0	n/a	184651	KeyDown	41324	1	Little	11
307.9100000000000	0	n/a	184747	KeyDown	41324	4	Index	11
308.1283333333333	0	n/a	184878	KeyDown	41324	2	Ring	11
308.2333333333333	0	n/a	184941	KeyDown	41324	3	Middle	11
308.6616666666667	0	n/a	185198	KeyDown	41324	4	Index	11
308.9050000000000	0	n/a	185344	KeyDown	41324	1	Little	11
309.0816666666667	0	n/a	185450	KeyDown	41324	3	Middle	11
309.2350000000000	0	n/a	185542	KeyDown	41324	2	Ring	11
309.4083333333334	0	n/a	185646	KeyDown	41324	4	Index	11
309.6050000000000	0	n/a	185764	KeyDown	41324	4	Index	11
309.7683333333334	0	n/a	185862	KeyDown	41324	1	Little	11
309.9500000000000	0	n/a	185971	KeyDown	41324	3	Middle	11
310.0783333333334	0	n/a	186048	KeyDown	41324	2	Ring	11
310.2183333333334	0	n/a	186132	KeyDown	41324	4	Index	11
310.4350000000000	0	n/a	186262	KeyDown	41324	4	Index	11
310.6183333333333	0	n/a	186372	KeyDown	41324	1	Little	11
310.7716666666667	0	n/a	186464	KeyDown	41324	3	Middle	11
310.9533333333334	0	n/a	186573	KeyDown	41324	2	Ring	11
311.0833333333334	0	n/a	186651	StopPractice	41324	n/a	n/a	11
311.0850000000000	0	n/a	186652	StartRest	XXXXX	n/a	n/a	11
321.1266666666667	0	n/a	192677	StopRest	XXXXX	n/a	n/a	11
321.1283333333333	0	UPPT001	192678	StartPractice	41324	n/a	n/a	12
321.8133333333333	0	n/a	193089	KeyDown	41324	4	Index	12
321.9400000000000	0	n/a	193165	KeyDown	41324	1	Little	12
322.0900000000000	0	n/a	193255	KeyDown	41324	3	Middle	12
322.3016666666667	0	n/a	193382	KeyDown	41324	2	Ring	12
322.4250000000000	0	n/a	193456	KeyDown	41324	4	Index	12
322.6300000000000	0	n/a	193579	KeyDown	41324	4	Index	12
322.8050000000000	0	n/a	193684	KeyDown	41324	4	Index	12
322.9750000000000	0	n/a	193786	KeyDown	41324	1	Little	12
323.0916666666667	0	n/a	193856	KeyDown	41324	3	Middle	12
323.2966666666667	0	n/a	193979	KeyDown	41324	2	Ring	12
323.4250000000000	0	n/a	194056	KeyDown	41324	4	Index	12
323.6266666666667	0	n/a	194177	KeyDown	41324	4	Index	12
323.8216666666667	0	n/a	194294	KeyDown	41324	1	Little	12
323.9650000000000	0	n/a	194380	KeyDown	41324	3	Middle	12
324.1200000000000	0	n/a	194473	KeyDown	41324	2	Ring	12
324.2400000000000	0	n/a	194545	KeyDown	41324	4	Index	12
324.4483333333334	0	n/a	194670	KeyDown	41324	4	Index	12
324.6400000000000	0	n/a	194785	KeyDown	41324	1	Little	12
324.7666666666667	0	n/a	194861	KeyDown	41324	3	Middle	12
324.9366666666667	0	n/a	194963	KeyDown	41324	2	Ring	12
325.0816666666667	0	n/a	195050	KeyDown	41324	4	Index	12
325.3216666666667	0	n/a	195194	KeyDown	41324	4	Index	12
325.4950000000000	0	n/a	195298	KeyDown	41324	1	Little	12
325.6466666666667	0	n/a	195389	KeyDown	41324	3	Middle	12
325.8216666666667	0	n/a	195494	KeyDown	41324	2	Ring	12
325.9400000000000	0	n/a	195565	KeyDown	41324	4	Index	12
326.1450000000000	0	n/a	195688	KeyDown	41324	4	Index	12
326.3533333333334	0	n/a	195813	KeyDown	41324	1	Little	12
326.5050000000000	0	n/a	195904	KeyDown	41324	3	Middle	12
326.6516666666667	0	n/a	195992	KeyDown	41324	2	Ring	12
326.7866666666667	0	n/a	196073	KeyDown	41324	4	Index	12
327.0166666666667	0	n/a	196211	KeyDown	41324	4	Index	12
327.2083333333334	0	n/a	196326	KeyDown	41324	1	Little	12
327.3800000000000	0	n/a	196429	KeyDown	41324	3	Middle	12
327.5266666666667	0	n/a	196517	KeyDown	41324	2	Ring	12
327.6850000000000	0	n/a	196612	KeyDown	41324	4	Index	12
327.8766666666667	0	n/a	196727	KeyDown	41324	4	Index	12
328.0550000000000	0	n/a	196834	KeyDown	41324	1	Little	12
328.2133333333334	0	n/a	196929	KeyDown	41324	3	Middle	12
328.3750000000000	0	n/a	197026	KeyDown	41324	2	Ring	12
328.5416666666667	0	n/a	197126	KeyDown	41324	4	Index	12
328.7416666666667	0	n/a	197246	KeyDown	41324	4	Index	12
328.9283333333333	0	n/a	197358	KeyDown	41324	1	Little	12
329.1016666666667	0	n/a	197462	KeyDown	41324	3	Middle	12
329.2750000000000	0	n/a	197566	KeyDown	41324	2	Ring	12
329.4416666666667	0	n/a	197666	KeyDown	41324	4	Index	12
329.6383333333334	0	n/a	197784	KeyDown	41324	4	Index	12
329.8316666666667	0	n/a	197900	KeyDown	41324	1	Little	12
330.0316666666667	0	n/a	198020	KeyDown	41324	2	Ring	12
330.0516666666667	0	n/a	198032	KeyDown	41324	3	Middle	12
330.2800000000000	0	n/a	198169	KeyDown	41324	3	Middle	12
330.3833333333334	0	n/a	198231	KeyDown	41324	2	Ring	12
330.6250000000000	0	n/a	198376	KeyDown	41324	4	Index	12
330.9033333333334	0	n/a	198543	KeyDown	41324	4	Index	12
330.9383333333333	0	n/a	198564	KeyDown	41324	1	Little	12
331.1250000000000	0	n/a	198676	KeyDown	41324	3	Middle	12
331.1750000000000	0	n/a	198706	StopPractice	41324	n/a	n/a	12
331.1766666666667	0	n/a	198707	StartRest	XXXXX	n/a	n/a	12
341.2183333333334	0	n/a	204732	StopRest	XXXXX	n/a	n/a	12
341.2200000000000	0	UPPT001	204733	StartPractice	41324	n/a	n/a	13
341.6300000000000	0	n/a	204979	KeyDown	41324	4	Index	13
341.8066666666667	0	n/a	205085	KeyDown	41324	1	Little	13
341.9833333333333	0	n/a	205191	KeyDown	41324	3	Middle	13
342.1483333333334	0	n/a	205290	KeyDown	41324	2	Ring	13
342.2833333333334	0	n/a	205371	KeyDown	41324	4	Index	13
342.4966666666667	0	n/a	205499	KeyDown	41324	4	Index	13
342.6900000000000	0	n/a	205615	KeyDown	41324	1	Little	13
342.8466666666667	0	n/a	205709	KeyDown	41324	3	Middle	13
342.9983333333333	0	n/a	205800	KeyDown	41324	2	Ring	13
343.1033333333334	0	n/a	205863	KeyDown	41324	4	Index	13
343.3266666666667	0	n/a	205997	KeyDown	41324	4	Index	13
343.4966666666667	0	n/a	206099	KeyDown	41324	1	Little	13
343.6633333333334	0	n/a	206199	KeyDown	41324	3	Middle	13
343.8033333333333	0	n/a	206283	KeyDown	41324	2	Ring	13
343.9200000000000	0	n/a	206353	KeyDown	41324	4	Index	13
344.1250000000000	0	n/a	206476	KeyDown	41324	4	Index	13
344.3033333333333	0	n/a	206583	KeyDown	41324	1	Little	13
344.4566666666667	0	n/a	206675	KeyDown	41324	3	Middle	13
344.6166666666667	0	n/a	206771	KeyDown	41324	2	Ring	13
344.7616666666667	0	n/a	206858	KeyDown	41324	4	Index	13
344.9616666666667	0	n/a	206978	KeyDown	41324	4	Index	13
345.1933333333333	0	n/a	207117	KeyDown	41324	1	Little	13
345.4033333333334	0	n/a	207243	KeyDown	41324	3	Middle	13
345.5333333333334	0	n/a	207321	KeyDown	41324	2	Ring	13
345.6983333333334	0	n/a	207420	KeyDown	41324	4	Index	13
345.9016666666667	0	n/a	207542	KeyDown	41324	4	Index	13
346.0733333333334	0	n/a	207645	KeyDown	41324	1	Little	13
346.2666666666667	0	n/a	207761	KeyDown	41324	3	Middle	13
346.4366666666667	0	n/a	207863	KeyDown	41324	2	Ring	13
346.5733333333334	0	n/a	207945	KeyDown	41324	4	Index	13
346.8200000000001	0	n/a	208093	KeyDown	41324	4	Index	13
347.0250000000000	0	n/a	208216	KeyDown	41324	1	Little	13
347.4766666666667	0	n/a	208487	KeyDown	41324	3	Middle	13
347.6150000000000	0	n/a	208570	KeyDown	41324	2	Ring	13
347.8583333333333	0	n/a	208716	KeyDown	41324	4	Index	13
348.1383333333334	0	n/a	208884	KeyDown	41324	1	Little	13
348.5516666666667	0	n/a	209132	KeyDown	41324	3	Middle	13
348.9733333333334	0	n/a	209385	KeyDown	41324	4	Index	13
349.1900000000000	0	n/a	209515	KeyDown	41324	4	Index	13
349.3416666666667	0	n/a	209606	KeyDown	41324	1	Little	13
349.5283333333334	0	n/a	209718	KeyDown	41324	3	Middle	13
349.6616666666667	0	n/a	209798	KeyDown	41324	2	Ring	13
349.8283333333334	0	n/a	209898	KeyDown	41324	4	Index	13
350.0516666666667	0	n/a	210032	KeyDown	41324	4	Index	13
350.2200000000000	0	n/a	210133	KeyDown	41324	1	Little	13
350.4033333333334	0	n/a	210243	KeyDown	41324	3	Middle	13
350.5600000000000	0	n/a	210337	KeyDown	41324	2	Ring	13
350.7166666666667	0	n/a	210431	KeyDown	41324	4	Index	13
350.9333333333333	0	n/a	210561	KeyDown	41324	4	Index	13
351.1316666666667	0	n/a	210680	KeyDown	41324	1	Little	13
351.2666666666667	0	n/a	210761	StopPractice	41324	n/a	n/a	13
351.2683333333334	0	n/a	210762	StartRest	XXXXX	n/a	n/a	13
361.3100000000000	0	n/a	216787	StopRest	XXXXX	n/a	n/a	13
361.3116666666667	0	UPPT001	216788	StartPractice	41324	n/a	n/a	14
361.9633333333334	0	n/a	217179	KeyDown	41324	4	Index	14
362.1283333333333	0	n/a	217278	KeyDown	41324	2	Ring	14
362.1600000000000	0	n/a	217297	KeyDown	41324	3	Middle	14
362.2250000000000	0	n/a	217336	KeyDown	41324	1	Little	14
362.6033333333334	0	n/a	217563	KeyDown	41324	3	Middle	14
362.6466666666667	0	n/a	217589	KeyDown	41324	2	Ring	14
362.9683333333334	0	n/a	217782	KeyDown	41324	4	Index	14
364.1350000000000	0	n/a	218482	KeyDown	41324	4	Index	14
364.4983333333333	0	n/a	218700	KeyDown	41324	1	Little	14
364.7133333333334	0	n/a	218829	KeyDown	41324	3	Middle	14
364.9050000000000	0	n/a	218944	KeyDown	41324	2	Ring	14
365.0683333333334	0	n/a	219042	KeyDown	41324	4	Index	14
365.2533333333333	0	n/a	219153	KeyDown	41324	4	Index	14
365.4250000000000	0	n/a	219256	KeyDown	41324	1	Little	14
365.5633333333333	0	n/a	219339	KeyDown	41324	3	Middle	14
365.7050000000000	0	n/a	219424	KeyDown	41324	2	Ring	14
365.8333333333334	0	n/a	219501	KeyDown	41324	4	Index	14
366.0283333333334	0	n/a	219618	KeyDown	41324	4	Index	14
366.1883333333333	0	n/a	219714	KeyDown	41324	1	Little	14
366.3283333333334	0	n/a	219798	KeyDown	41324	3	Middle	14
366.4716666666667	0	n/a	219884	KeyDown	41324	2	Ring	14
366.6233333333333	0	n/a	219975	KeyDown	41324	4	Index	14
366.8283333333334	0	n/a	220098	KeyDown	41324	4	Index	14
367.0300000000000	0	n/a	220219	KeyDown	41324	1	Little	14
367.1733333333333	0	n/a	220305	KeyDown	41324	3	Middle	14
367.3250000000000	0	n/a	220396	KeyDown	41324	2	Ring	14
367.4650000000000	0	n/a	220480	KeyDown	41324	4	Index	14
367.6633333333334	0	n/a	220599	KeyDown	41324	4	Index	14
367.8766666666667	0	n/a	220727	KeyDown	41324	1	Little	14
368.0283333333334	0	n/a	220818	KeyDown	41324	3	Middle	14
368.2133333333334	0	n/a	220929	KeyDown	41324	2	Ring	14
368.3683333333333	0	n/a	221022	KeyDown	41324	4	Index	14
368.5733333333334	0	n/a	221145	KeyDown	41324	4	Index	14
368.7183333333334	0	n/a	221232	KeyDown	41324	1	Little	14
368.8866666666667	0	n/a	221333	KeyDown	41324	3	Middle	14
369.0666666666667	0	n/a	221441	KeyDown	41324	2	Ring	14
369.2083333333334	0	n/a	221526	KeyDown	41324	4	Index	14
369.4316666666667	0	n/a	221660	KeyDown	41324	4	Index	14
369.6050000000000	0	n/a	221764	KeyDown	41324	1	Little	14
369.7583333333334	0	n/a	221856	KeyDown	41324	3	Middle	14
369.9233333333333	0	n/a	221955	KeyDown	41324	2	Ring	14
370.0733333333334	0	n/a	222045	KeyDown	41324	4	Index	14
370.3083333333333	0	n/a	222186	KeyDown	41324	4	Index	14
370.4783333333334	0	n/a	222288	KeyDown	41324	1	Little	14
370.6983333333334	0	n/a	222420	KeyDown	41324	3	Middle	14
371.0100000000000	0	n/a	222607	KeyDown	41324	4	Index	14
371.2083333333334	0	n/a	222726	KeyDown	41324	4	Index	14
371.3583333333333	0	n/a	222816	StopPractice	41324	n/a	n/a	14
371.3600000000000	0	n/a	222817	StartRest	XXXXX	n/a	n/a	14
381.3850000000000	0	n/a	228832	StopRest	XXXXX	n/a	n/a	14
381.3866666666667	0	UPPT001	228833	StartPractice	41324	n/a	n/a	15
381.8033333333333	0	n/a	229083	KeyDown	41324	4	Index	15
381.9633333333334	0	n/a	229179	KeyDown	41324	1	Little	15
382.0916666666667	0	n/a	229256	KeyDown	41324	3	Middle	15
382.3000000000000	0	n/a	229381	KeyDown	41324	2	Ring	15
382.4450000000001	0	n/a	229468	KeyDown	41324	4	Index	15
382.7233333333334	0	n/a	229635	KeyDown	41324	4	Index	15
382.8600000000000	0	n/a	229717	KeyDown	41324	4	Index	15
382.9950000000000	0	n/a	229798	KeyDown	41324	1	Little	15
383.1083333333333	0	n/a	229866	KeyDown	41324	2	Ring	15
383.1783333333333	0	n/a	229908	KeyDown	41324	3	Middle	15
383.3516666666667	0	n/a	230012	KeyDown	41324	2	Ring	15
383.4916666666667	0	n/a	230096	KeyDown	41324	4	Index	15
383.6950000000001	0	n/a	230218	KeyDown	41324	4	Index	15
383.8666666666667	0	n/a	230321	KeyDown	41324	1	Little	15
384.0150000000000	0	n/a	230410	KeyDown	41324	3	Middle	15
384.1600000000000	0	n/a	230497	KeyDown	41324	2	Ring	15
384.2900000000000	0	n/a	230575	KeyDown	41324	4	Index	15
384.4883333333333	0	n/a	230694	KeyDown	41324	4	Index	15
384.6833333333333	0	n/a	230811	KeyDown	41324	1	Little	15
384.8366666666667	0	n/a	230903	KeyDown	41324	3	Middle	15
385.0000000000000	0	n/a	231001	KeyDown	41324	2	Ring	15
385.1166666666667	0	n/a	231071	KeyDown	41324	4	Index	15
385.3133333333333	0	n/a	231189	KeyDown	41324	4	Index	15
385.5266666666667	0	n/a	231317	KeyDown	41324	1	Little	15
385.7116666666667	0	n/a	231428	KeyDown	41324	3	Middle	15
385.8600000000000	0	n/a	231517	KeyDown	41324	2	Ring	15
386.0000000000000	0	n/a	231601	KeyDown	41324	4	Index	15
386.2200000000000	0	n/a	231733	KeyDown	41324	4	Index	15
386.4200000000000	0	n/a	231853	KeyDown	41324	1	Little	15
386.5633333333333	0	n/a	231939	KeyDown	41324	3	Middle	15
386.7450000000000	0	n/a	232048	KeyDown	41324	2	Ring	15
386.8683333333333	0	n/a	232122	KeyDown	41324	4	Index	15
387.0733333333334	0	n/a	232245	KeyDown	41324	4	Index	15
387.2800000000000	0	n/a	232369	KeyDown	41324	1	Little	15
387.4100000000000	0	n/a	232447	KeyDown	41324	3	Middle	15
387.5750000000000	0	n/a	232546	KeyDown	41324	2	Ring	15
387.7300000000000	0	n/a	232639	KeyDown	41324	4	Index	15
387.9533333333334	0	n/a	232773	KeyDown	41324	4	Index	15
388.1166666666667	0	n/a	232871	KeyDown	41324	1	Little	15
388.3283333333334	0	n/a	232998	KeyDown	41324	3	Middle	15
388.4583333333334	0	n/a	233076	KeyDown	41324	2	Ring	15
388.6250000000000	0	n/a	233176	KeyDown	41324	4	Index	15
388.8733333333333	0	n/a	233325	KeyDown	41324	4	Index	15
389.0666666666667	0	n/a	233441	KeyDown	41324	1	Little	15
389.2816666666667	0	n/a	233570	KeyDown	41324	3	Middle	15
389.4550000000000	0	n/a	233674	KeyDown	41324	2	Ring	15
389.5983333333334	0	n/a	233760	KeyDown	41324	4	Index	15
389.8000000000000	0	n/a	233881	KeyDown	41324	4	Index	15
389.9950000000000	0	n/a	233998	KeyDown	41324	1	Little	15
390.1750000000000	0	n/a	234106	KeyDown	41324	3	Middle	15
390.3200000000001	0	n/a	234193	KeyDown	41324	2	Ring	15
390.4766666666667	0	n/a	234287	KeyDown	41324	4	Index	15
390.6916666666667	0	n/a	234416	KeyDown	41324	4	Index	15
390.8600000000000	0	n/a	234517	KeyDown	41324	1	Little	15
391.0733333333334	0	n/a	234645	KeyDown	41324	3	Middle	15
391.2200000000000	0	n/a	234733	KeyDown	41324	2	Ring	15
391.3950000000000	0	n/a	234838	KeyDown	41324	4	Index	15
391.4333333333333	0	n/a	234861	StopPractice	41324	n/a	n/a	15
391.4350000000000	0	n/a	234862	StartRest	XXXXX	n/a	n/a	15
401.4766666666667	0	n/a	240887	StopRest	XXXXX	n/a	n/a	15
401.4783333333334	0	UPPT001	240888	StartPractice	41324	n/a	n/a	16
401.8283333333334	0	n/a	241098	KeyDown	41324	4	Index	16
401.9666666666667	0	n/a	241181	KeyDown	41324	1	Little	16
402.1133333333333	0	n/a	241269	KeyDown	41324	3	Middle	16
402.3466666666667	0	n/a	241409	KeyDown	41324	2	Ring	16
402.4466666666667	0	n/a	241469	KeyDown	41324	4	Index	16
402.6133333333333	0	n/a	241569	KeyDown	41324	4	Index	16
402.7816666666667	0	n/a	241670	KeyDown	41324	1	Little	16
402.9150000000000	0	n/a	241750	KeyDown	41324	3	Middle	16
403.0300000000000	0	n/a	241819	KeyDown	41324	2	Ring	16
403.2300000000000	0	n/a	241939	KeyDown	41324	4	Index	16
403.5483333333333	0	n/a	242130	KeyDown	41324	4	Index	16
403.7500000000000	0	n/a	242251	KeyDown	41324	1	Little	16
403.9166666666667	0	n/a	242351	KeyDown	41324	3	Middle	16
404.0683333333334	0	n/a	242442	KeyDown	41324	2	Ring	16
404.2366666666667	0	n/a	242543	KeyDown	41324	4	Index	16
404.4400000000000	0	n/a	242665	KeyDown	41324	4	Index	16
404.6316666666667	0	n/a	242780	KeyDown	41324	1	Little	16
404.7750000000000	0	n/a	242866	KeyDown	41324	3	Middle	16
404.9200000000000	0	n/a	242953	KeyDown	41324	2	Ring	16
405.0683333333334	0	n/a	243042	KeyDown	41324	4	Index	16
405.2750000000000	0	n/a	243166	KeyDown	41324	4	Index	16
405.4750000000000	0	n/a	243286	KeyDown	41324	1	Little	16
405.6633333333334	0	n/a	243399	KeyDown	41324	3	Middle	16
405.8166666666667	0	n/a	243491	KeyDown	41324	2	Ring	16
405.9750000000000	0	n/a	243586	KeyDown	41324	4	Index	16
406.2033333333334	0	n/a	243723	KeyDown	41324	4	Index	16
406.3850000000000	0	n/a	243832	KeyDown	41324	1	Little	16
406.5650000000000	0	n/a	243940	KeyDown	41324	3	Middle	16
406.7066666666667	0	n/a	244025	KeyDown	41324	2	Ring	16
406.8533333333334	0	n/a	244113	KeyDown	41324	4	Index	16
407.0516666666667	0	n/a	244232	KeyDown	41324	4	Index	16
407.2600000000000	0	n/a	244357	KeyDown	41324	1	Little	16
407.4016666666667	0	n/a	244442	KeyDown	41324	3	Middle	16
407.5550000000000	0	n/a	244534	KeyDown	41324	2	Ring	16
407.7100000000000	0	n/a	244627	KeyDown	41324	4	Index	16
407.9250000000000	0	n/a	244756	KeyDown	41324	4	Index	16
408.1100000000000	0	n/a	244867	KeyDown	41324	1	Little	16
408.2716666666667	0	n/a	244964	KeyDown	41324	3	Middle	16
408.5750000000000	0	n/a	245146	KeyDown	41324	3	Middle	16
408.8450000000000	0	n/a	245308	KeyDown	41324	4	Index	16
409.0816666666667	0	n/a	245450	KeyDown	41324	1	Little	16
409.2883333333334	0	n/a	245574	KeyDown	41324	3	Middle	16
409.4533333333334	0	n/a	245673	KeyDown	41324	2	Ring	16
409.6216666666667	0	n/a	245774	KeyDown	41324	4	Index	16
409.8450000000000	0	n/a	245908	KeyDown	41324	4	Index	16
410.0200000000000	0	n/a	246013	KeyDown	41324	1	Little	16
410.1816666666667	0	n/a	246110	KeyDown	41324	3	Middle	16
410.3466666666667	0	n/a	246209	KeyDown	41324	2	Ring	16
410.5150000000000	0	n/a	246310	KeyDown	41324	4	Index	16
410.7483333333333	0	n/a	246450	KeyDown	41324	4	Index	16
410.9583333333334	0	n/a	246576	KeyDown	41324	1	Little	16
411.0816666666667	0	n/a	246650	KeyDown	41324	3	Middle	16
411.2666666666667	0	n/a	246761	KeyDown	41324	2	Ring	16
411.4550000000000	0	n/a	246874	KeyDown	41324	4	Index	16
411.5250000000000	0	n/a	246916	StopPractice	41324	n/a	n/a	16
411.5266666666667	0	n/a	246917	StartRest	XXXXX	n/a	n/a	16
421.5516666666667	0	n/a	252932	StopRest	XXXXX	n/a	n/a	16
421.5533333333333	0	UPPT001	252933	StartPractice	41324	n/a	n/a	17
421.9550000000000	0	n/a	253174	KeyDown	41324	4	Index	17
422.0833333333334	0	n/a	253251	KeyDown	41324	1	Little	17
422.2150000000000	0	n/a	253330	KeyDown	41324	3	Middle	17
422.4116666666667	0	n/a	253448	KeyDown	41324	2	Ring	17
422.5566666666667	0	n/a	253535	KeyDown	41324	4	Index	17
422.7183333333334	0	n/a	253632	KeyDown	41324	4	Index	17
422.8800000000001	0	n/a	253729	KeyDown	41324	1	Little	17
423.0416666666667	0	n/a	253826	KeyDown	41324	3	Middle	17
423.1616666666667	0	n/a	253898	KeyDown	41324	2	Ring	17
423.3300000000000	0	n/a	253999	KeyDown	41324	4	Index	17
423.5216666666667	0	n/a	254114	KeyDown	41324	4	Index	17
423.6766666666667	0	n/a	254207	KeyDown	41324	1	Little	17
423.8233333333334	0	n/a	254295	KeyDown	41324	3	Middle	17
423.9983333333333	0	n/a	254400	KeyDown	41324	2	Ring	17
424.1766666666667	0	n/a	254507	KeyDown	41324	4	Index	17
424.3750000000000	0	n/a	254626	KeyDown	41324	4	Index	17
424.5366666666667	0	n/a	254723	KeyDown	41324	1	Little	17
424.6850000000000	0	n/a	254812	KeyDown	41324	3	Middle	17
424.8466666666667	0	n/a	254909	KeyDown	41324	2	Ring	17
425.0116666666667	0	n/a	255008	KeyDown	41324	4	Index	17
425.2166666666667	0	n/a	255131	KeyDown	41324	4	Index	17
425.3900000000000	0	n/a	255235	KeyDown	41324	1	Little	17
425.5100000000000	0	n/a	255307	KeyDown	41324	3	Middle	17
425.6900000000001	0	n/a	255415	KeyDown	41324	2	Ring	17
425.8733333333333	0	n/a	255525	KeyDown	41324	4	Index	17
426.0800000000000	0	n/a	255649	KeyDown	41324	4	Index	17
426.2850000000000	0	n/a	255772	KeyDown	41324	1	Little	17
426.4316666666667	0	n/a	255860	KeyDown	41324	3	Middle	17
426.6050000000000	0	n/a	255964	KeyDown	41324	2	Ring	17
426.7800000000000	0	n/a	256069	KeyDown	41324	4	Index	17
426.9850000000000	0	n/a	256192	KeyDown	41324	4	Index	17
427.1900000000001	0	n/a	256315	KeyDown	41324	1	Little	17
427.3566666666667	0	n/a	256415	KeyDown	41324	3	Middle	17
427.5116666666667	0	n/a	256508	KeyDown	41324	2	Ring	17
427.6716666666667	0	n/a	256604	KeyDown	41324	4	Index	17
427.8966666666667	0	n/a	256739	KeyDown	41324	4	Index	17
428.0883333333334	0	n/a	256854	KeyDown	41324	1	Little	17
428.2633333333334	0	n/a	256959	KeyDown	41324	3	Middle	17
428.4216666666667	0	n/a	257054	KeyDown	41324	2	Ring	17
428.5816666666667	0	n/a	257150	KeyDown	41324	4	Index	17
428.8066666666667	0	n/a	257285	KeyDown	41324	4	Index	17
429.0233333333334	0	n/a	257415	KeyDown	41324	1	Little	17
429.1833333333333	0	n/a	257511	KeyDown	41324	3	Middle	17
429.3466666666667	0	n/a	257609	KeyDown	41324	2	Ring	17
429.5133333333334	0	n/a	257709	KeyDown	41324	4	Index	17
429.7050000000000	0	n/a	257824	KeyDown	41324	4	Index	17
429.8950000000000	0	n/a	257938	KeyDown	41324	1	Little	17
430.0516666666667	0	n/a	258032	KeyDown	41324	3	Middle	17
430.2300000000000	0	n/a	258139	KeyDown	41324	2	Ring	17
430.4100000000000	0	n/a	258247	KeyDown	41324	4	Index	17
430.6450000000000	0	n/a	258388	KeyDown	41324	4	Index	17
430.8400000000000	0	n/a	258505	KeyDown	41324	1	Little	17
431.0266666666667	0	n/a	258617	KeyDown	41324	3	Middle	17
431.2216666666667	0	n/a	258734	KeyDown	41324	2	Ring	17
431.3950000000000	0	n/a	258838	KeyDown	41324	4	Index	17
431.6000000000000	0	n/a	258961	StopPractice	41324	n/a	n/a	17
431.6016666666667	0	n/a	258962	StartRest	XXXXX	n/a	n/a	17
441.6266666666667	0	n/a	264977	StopRest	XXXXX	n/a	n/a	17
441.6283333333334	0	UPPT001	264978	StartPractice	41324	n/a	n/a	18
442.0466666666667	0	n/a	265229	KeyDown	41324	4	Index	18
442.2433333333333	0	n/a	265347	KeyDown	41324	1	Little	18
442.4083333333334	0	n/a	265446	KeyDown	41324	3	Middle	18
442.5900000000000	0	n/a	265555	KeyDown	41324	2	Ring	18
442.7416666666667	0	n/a	265646	KeyDown	41324	4	Index	18
442.9016666666667	0	n/a	265742	KeyDown	41324	4	Index	18
443.0283333333334	0	n/a	265818	KeyDown	41324	1	Little	18
443.2050000000000	0	n/a	265924	KeyDown	41324	3	Middle	18
443.3450000000000	0	n/a	266008	KeyDown	41324	2	Ring	18
443.4866666666667	0	n/a	266093	KeyDown	41324	4	Index	18
443.6883333333334	0	n/a	266214	KeyDown	41324	4	Index	18
443.8466666666667	0	n/a	266309	KeyDown	41324	1	Little	18
444.0100000000000	0	n/a	266407	KeyDown	41324	3	Middle	18
444.1366666666667	0	n/a	266483	KeyDown	41324	2	Ring	18
444.2666666666667	0	n/a	266561	KeyDown	41324	4	Index	18
444.4783333333334	0	n/a	266688	KeyDown	41324	4	Index	18
444.5466666666667	0	n/a	266729	KeyDown	41324	1	Little	18
444.8216666666667	0	n/a	266894	KeyDown	41324	3	Middle	18
444.9300000000000	0	n/a	266959	KeyDown	41324	2	Ring	18
445.1316666666667	0	n/a	267080	KeyDown	41324	4	Index	18
445.3300000000000	0	n/a	267199	KeyDown	41324	4	Index	18
445.5016666666667	0	n/a	267302	KeyDown	41324	1	Little	18
445.6566666666667	0	n/a	267395	KeyDown	41324	3	Middle	18
445.8016666666667	0	n/a	267482	KeyDown	41324	2	Ring	18
445.9483333333334	0	n/a	267570	KeyDown	41324	4	Index	18
446.1450000000000	0	n/a	267688	KeyDown	41324	4	Index	18
446.3150000000001	0	n/a	267790	KeyDown	41324	1	Little	18
446.4516666666667	0	n/a	267872	KeyDown	41324	3	Middle	18
446.5933333333334	0	n/a	267957	KeyDown	41324	2	Ring	18
446.7366666666667	0	n/a	268043	KeyDown	41324	4	Index	18
446.9550000000000	0	n/a	268174	KeyDown	41324	4	Index	18
447.1366666666667	0	n/a	268283	KeyDown	41324	1	Little	18
447.2833333333334	0	n/a	268371	KeyDown	41324	3	Middle	18
447.4366666666667	0	n/a	268463	KeyDown	41324	2	Ring	18
447.5933333333334	0	n/a	268557	KeyDown	41324	4	Index	18
447.7983333333333	0	n/a	268680	KeyDown	41324	4	Index	18
447.9850000000000	0	n/a	268792	KeyDown	41324	1	Little	18
448.1300000000001	0	n/a	268879	KeyDown	41324	3	Middle	18
448.3066666666667	0	n/a	268985	KeyDown	41324	3	Middle	18
448.4016666666667	0	n/a	269042	KeyDown	41324	2	Ring	18
448.5966666666667	0	n/a	269159	KeyDown	41324	4	Index	18
448.8166666666667	0	n/a	269291	KeyDown	41324	4	Index	18
448.9800000000000	0	n/a	269389	KeyDown	41324	1	Little	18
449.1466666666667	0	n/a	269489	KeyDown	41324	3	Middle	18
449.3183333333334	0	n/a	269592	KeyDown	41324	2	Ring	18
449.4933333333333	0	n/a	269697	KeyDown	41324	4	Index	18
449.6900000000001	0	n/a	269815	KeyDown	41324	4	Index	18
449.8766666666667	0	n/a	269927	KeyDown	41324	1	Little	18
450.0200000000000	0	n/a	270013	KeyDown	41324	3	Middle	18
450.2033333333334	0	n/a	270123	KeyDown	41324	2	Ring	18
450.3916666666667	0	n/a	270236	KeyDown	41324	4	Index	18
450.6116666666667	0	n/a	270368	KeyDown	41324	4	Index	18
450.8983333333334	0	n/a	270540	KeyDown	41324	1	Little	18
451.1266666666667	0	n/a	270677	KeyDown	41324	3	Middle	18
451.3600000000000	0	n/a	270817	KeyDown	41324	2	Ring	18
451.5883333333334	0	n/a	270954	KeyDown	41324	4	Index	18
451.6750000000000	0	n/a	271006	StopPractice	41324	n/a	n/a	18
451.6766666666667	0	n/a	271007	StartRest	XXXXX	n/a	n/a	18
461.7016666666667	0	n/a	277022	StopRest	XXXXX	n/a	n/a	18
461.7033333333334	0	UPPT001	277023	StartPractice	41324	n/a	n/a	19
462.1700000000000	0	n/a	277303	KeyDown	41324	4	Index	19
462.3450000000000	0	n/a	277408	KeyDown	41324	1	Little	19
462.4950000000000	0	n/a	277498	KeyDown	41324	3	Middle	19
462.6683333333334	0	n/a	277602	KeyDown	41324	2	Ring	19
462.8116666666667	0	n/a	277688	KeyDown	41324	4	Index	19
462.9833333333333	0	n/a	277791	KeyDown	41324	4	Index	19
463.1250000000001	0	n/a	277876	KeyDown	41324	1	Little	19
463.2800000000000	0	n/a	277969	KeyDown	41324	3	Middle	19
463.4116666666667	0	n/a	278048	KeyDown	41324	2	Ring	19
463.5450000000000	0	n/a	278128	KeyDown	41324	4	Index	19
463.7483333333333	0	n/a	278250	KeyDown	41324	4	Index	19
463.9133333333334	0	n/a	278349	KeyDown	41324	1	Little	19
464.0650000000001	0	n/a	278440	KeyDown	41324	3	Middle	19
464.1833333333333	0	n/a	278511	KeyDown	41324	2	Ring	19
464.3033333333333	0	n/a	278583	KeyDown	41324	4	Index	19
464.5016666666667	0	n/a	278702	KeyDown	41324	4	Index	19
464.6833333333333	0	n/a	278811	KeyDown	41324	1	Little	19
464.8333333333334	0	n/a	278901	KeyDown	41324	3	Middle	19
464.9683333333334	0	n/a	278982	KeyDown	41324	2	Ring	19
465.1050000000000	0	n/a	279064	KeyDown	41324	4	Index	19
465.3116666666667	0	n/a	279188	KeyDown	41324	4	Index	19
465.4866666666667	0	n/a	279293	KeyDown	41324	4	Index	19
465.6050000000000	0	n/a	279364	KeyDown	41324	1	Little	19
465.7233333333334	0	n/a	279435	KeyDown	41324	3	Middle	19
465.8666666666667	0	n/a	279521	KeyDown	41324	2	Ring	19
466.0116666666667	0	n/a	279608	KeyDown	41324	4	Index	19
466.2083333333334	0	n/a	279726	KeyDown	41324	4	Index	19
466.4000000000000	0	n/a	279841	KeyDown	41324	1	Little	19
466.5483333333333	0	n/a	279930	KeyDown	41324	3	Middle	19
466.7016666666667	0	n/a	280022	KeyDown	41324	2	Ring	19
466.8600000000000	0	n/a	280117	KeyDown	41324	4	Index	19
467.0766666666667	0	n/a	280247	KeyDown	41324	4	Index	19
467.3016666666667	0	n/a	280382	KeyDown	41324	1	Little	19
467.4866666666667	0	n/a	280493	KeyDown	41324	3	Middle	19
467.6550000000000	0	n/a	280594	KeyDown	41324	2	Ring	19
467.8283333333334	0	n/a	280698	KeyDown	41324	4	Index	19
468.0350000000000	0	n/a	280822	KeyDown	41324	4	Index	19
468.2166666666667	0	n/a	280931	KeyDown	41324	1	Little	19
468.3766666666667	0	n/a	281027	KeyDown	41324	3	Middle	19
468.5233333333334	0	n/a	281115	KeyDown	41324	2	Ring	19
468.6733333333333	0	n/a	281205	KeyDown	41324	4	Index	19
468.8783333333334	0	n/a	281328	KeyDown	41324	4	Index	19
469.0866666666667	0	n/a	281453	KeyDown	41324	1	Little	19
469.2416666666667	0	n/a	281546	KeyDown	41324	3	Middle	19
469.4050000000000	0	n/a	281644	KeyDown	41324	2	Ring	19
469.5550000000000	0	n/a	281734	KeyDown	41324	4	Index	19
469.7600000000000	0	n/a	281857	KeyDown	41324	4	Index	19
469.9550000000000	0	n/a	281974	KeyDown	41324	1	Little	19
470.0966666666667	0	n/a	282059	KeyDown	41324	3	Middle	19
470.2450000000000	0	n/a	282148	KeyDown	41324	2	Ring	19
470.3950000000000	0	n/a	282238	KeyDown	41324	4	Index	19
470.6066666666667	0	n/a	282365	KeyDown	41324	4	Index	19
470.8116666666667	0	n/a	282488	KeyDown	41324	1	Little	19
470.9583333333334	0	n/a	282576	KeyDown	41324	3	Middle	19
471.1116666666667	0	n/a	282668	KeyDown	41324	2	Ring	19
471.2666666666667	0	n/a	282761	KeyDown	41324	4	Index	19
471.4750000000000	0	n/a	282886	KeyDown	41324	4	Index	19
471.7500000000001	0	n/a	283051	StopPractice	41324	n/a	n/a	19
471.7516666666667	0	n/a	283052	StartRest	XXXXX	n/a	n/a	19
481.7766666666667	0	n/a	289067	StopRest	XXXXX	n/a	n/a	19
481.7783333333334	0	UPPT001	289068	StartPractice	41324	n/a	n/a	20
482.2066666666667	0	n/a	289325	KeyDown	41324	4	Index	20
482.3566666666667	0	n/a	289415	KeyDown	41324	1	Little	20
482.5066666666667	0	n/a	289505	KeyDown	41324	3	Middle	20
482.7100000000000	0	n/a	289627	KeyDown	41324	2	Ring	20
482.7983333333333	0	n/a	289680	KeyDown	41324	4	Index	20
482.9600000000000	0	n/a	289777	KeyDown	41324	4	Index	20
483.1233333333334	0	n/a	289875	KeyDown	41324	1	Little	20
483.2683333333334	0	n/a	289962	KeyDown	41324	3	Middle	20
483.3850000000000	0	n/a	290032	KeyDown	41324	2	Ring	20
483.5050000000001	0	n/a	290104	KeyDown	41324	4	Index	20
483.6766666666667	0	n/a	290207	KeyDown	41324	4	Index	20
483.8683333333333	0	n/a	290322	KeyDown	41324	1	Little	20
484.0333333333334	0	n/a	290421	KeyDown	41324	3	Middle	20
484.1650000000000	0	n/a	290500	KeyDown	41324	2	Ring	20
484.2966666666667	0	n/a	290579	KeyDown	41324	4	Index	20
484.4866666666667	0	n/a	290693	KeyDown	41324	4	Index	20
484.6616666666667	0	n/a	290798	KeyDown	41324	1	Little	20
484.7750000000000	0	n/a	290866	KeyDown	41324	3	Middle	20
484.9266666666667	0	n/a	290957	KeyDown	41324	2	Ring	20
485.0816666666667	0	n/a	291050	KeyDown	41324	4	Index	20
485.2700000000000	0	n/a	291163	KeyDown	41324	4	Index	20
485.4383333333334	0	n/a	291264	KeyDown	41324	1	Little	20
485.6000000000000	0	n/a	291361	KeyDown	41324	3	Middle	20
485.7383333333333	0	n/a	291444	KeyDown	41324	2	Ring	20
485.8583333333333	0	n/a	291516	KeyDown	41324	4	Index	20
486.0283333333334	0	n/a	291618	KeyDown	41324	4	Index	20
486.2550000000001	0	n/a	291754	KeyDown	41324	1	Little	20
486.3850000000000	0	n/a	291832	KeyDown	41324	3	Middle	20
486.5100000000000	0	n/a	291907	KeyDown	41324	2	Ring	20
486.6400000000000	0	n/a	291985	KeyDown	41324	4	Index	20
486.8300000000000	0	n/a	292099	KeyDown	41324	4	Index	20
486.9966666666667	0	n/a	292199	KeyDown	41324	1	Little	20
487.1400000000000	0	n/a	292285	KeyDown	41324	3	Middle	20
487.3366666666667	0	n/a	292403	KeyDown	41324	2	Ring	20
487.4550000000000	0	n/a	292474	KeyDown	41324	4	Index	20
487.6750000000000	0	n/a	292606	KeyDown	41324	4	Index	20
487.8466666666667	0	n/a	292709	KeyDown	41324	1	Little	20
487.9900000000000	0	n/a	292795	KeyDown	41324	3	Middle	20
487.9966666666667	0	n/a	292799	KeyDown	41324	2	Ring	20
488.3633333333333	0	n/a	293019	KeyDown	41324	4	Index	20
488.5750000000000	0	n/a	293146	KeyDown	41324	4	Index	20
488.7583333333334	0	n/a	293256	KeyDown	41324	1	Little	20
488.9350000000001	0	n/a	293362	KeyDown	41324	3	Middle	20
489.1000000000000	0	n/a	293461	KeyDown	41324	2	Ring	20
489.2666666666667	0	n/a	293561	KeyDown	41324	4	Index	20
489.4550000000000	0	n/a	293674	KeyDown	41324	4	Index	20
489.6416666666667	0	n/a	293786	KeyDown	41324	1	Little	20
489.7616666666667	0	n/a	293858	KeyDown	41324	3	Middle	20
489.9333333333333	0	n/a	293961	KeyDown	41324	2	Ring	20
490.1100000000000	0	n/a	294067	KeyDown	41324	4	Index	20
490.3116666666667	0	n/a	294188	KeyDown	41324	4	Index	20
490.4950000000000	0	n/a	294298	KeyDown	41324	4	Index	20
490.6533333333334	0	n/a	294393	KeyDown	41324	1	Little	20
490.8200000000001	0	n/a	294493	KeyDown	41324	3	Middle	20
491.0000000000001	0	n/a	294601	KeyDown	41324	2	Ring	20
491.1850000000001	0	n/a	294712	KeyDown	41324	4	Index	20
491.3816666666667	0	n/a	294830	KeyDown	41324	4	Index	20
491.5616666666667	0	n/a	294938	KeyDown	41324	4	Index	20
491.6916666666667	0	n/a	295016	KeyDown	41324	1	Little	20
491.8250000000000	0	n/a	295096	StopPractice	41324	n/a	n/a	20
491.8266666666667	0	n/a	295097	StartRest	XXXXX	n/a	n/a	20
501.8516666666667	0	n/a	301112	StopRest	XXXXX	n/a	n/a	20
501.8533333333334	0	UPPT001	301113	StartPractice	41324	n/a	n/a	21
502.3216666666667	0	n/a	301394	KeyDown	41324	4	Index	21
502.4750000000000	0	n/a	301486	KeyDown	41324	1	Little	21
502.6316666666667	0	n/a	301580	KeyDown	41324	3	Middle	21
502.7516666666667	0	n/a	301652	KeyDown	41324	2	Ring	21
502.8716666666667	0	n/a	301724	KeyDown	41324	4	Index	21
503.0483333333333	0	n/a	301830	KeyDown	41324	4	Index	21
503.2200000000000	0	n/a	301933	KeyDown	41324	1	Little	21
503.3683333333333	0	n/a	302022	KeyDown	41324	3	Middle	21
503.5000000000001	0	n/a	302101	KeyDown	41324	2	Ring	21
503.6350000000000	0	n/a	302182	KeyDown	41324	4	Index	21
503.8400000000000	0	n/a	302305	KeyDown	41324	4	Index	21
504.0066666666667	0	n/a	302405	KeyDown	41324	1	Little	21
504.1500000000000	0	n/a	302491	KeyDown	41324	3	Middle	21
504.2816666666667	0	n/a	302570	KeyDown	41324	2	Ring	21
504.4150000000000	0	n/a	302650	KeyDown	41324	4	Index	21
504.6166666666667	0	n/a	302771	KeyDown	41324	4	Index	21
504.7950000000000	0	n/a	302878	KeyDown	41324	1	Little	21
504.9083333333334	0	n/a	302946	KeyDown	41324	3	Middle	21
505.0650000000001	0	n/a	303040	KeyDown	41324	2	Ring	21
505.2250000000000	0	n/a	303136	KeyDown	41324	4	Index	21
505.4166666666667	0	n/a	303251	KeyDown	41324	4	Index	21
505.5900000000000	0	n/a	303355	KeyDown	41324	1	Little	21
505.7266666666667	0	n/a	303437	KeyDown	41324	3	Middle	21
505.8666666666667	0	n/a	303521	KeyDown	41324	2	Ring	21
506.0083333333334	0	n/a	303606	KeyDown	41324	4	Index	21
506.2166666666667	0	n/a	303731	KeyDown	41324	4	Index	21
506.4516666666667	0	n/a	303872	KeyDown	41324	1	Little	21
506.5783333333334	0	n/a	303948	KeyDown	41324	3	Middle	21
506.7233333333334	0	n/a	304035	KeyDown	41324	2	Ring	21
506.8716666666667	0	n/a	304124	KeyDown	41324	4	Index	21
507.0750000000000	0	n/a	304246	KeyDown	41324	4	Index	21
507.2666666666667	0	n/a	304361	KeyDown	41324	1	Little	21
507.4383333333334	0	n/a	304464	KeyDown	41324	3	Middle	21
507.6350000000000	0	n/a	304582	KeyDown	41324	2	Ring	21
507.8350000000000	0	n/a	304702	KeyDown	41324	4	Index	21
508.0150000000000	0	n/a	304810	KeyDown	41324	4	Index	21
508.2250000000000	0	n/a	304936	KeyDown	41324	1	Little	21
508.3700000000000	0	n/a	305023	KeyDown	41324	3	Middle	21
508.5950000000000	0	n/a	305158	KeyDown	41324	2	Ring	21
508.8250000000000	0	n/a	305296	KeyDown	41324	4	Index	21
509.0066666666667	0	n/a	305405	KeyDown	41324	4	Index	21
509.2866666666667	0	n/a	305573	KeyDown	41324	1	Little	21
509.4216666666667	0	n/a	305654	KeyDown	41324	3	Middle	21
509.5900000000000	0	n/a	305755	KeyDown	41324	2	Ring	21
509.7616666666667	0	n/a	305858	KeyDown	41324	4	Index	21
509.9400000000001	0	n/a	305965	KeyDown	41324	4	Index	21
510.1166666666667	0	n/a	306071	KeyDown	41324	1	Little	21
510.2700000000000	0	n/a	306163	KeyDown	41324	3	Middle	21
510.4100000000000	0	n/a	306247	KeyDown	41324	2	Ring	21
510.5516666666667	0	n/a	306332	KeyDown	41324	4	Index	21
510.7766666666667	0	n/a	306467	KeyDown	41324	4	Index	21
511.0566666666667	0	n/a	306635	KeyDown	41324	1	Little	21
511.1866666666667	0	n/a	306713	KeyDown	41324	3	Middle	21
511.3600000000000	0	n/a	306817	KeyDown	41324	2	Ring	21
511.5350000000000	0	n/a	306922	KeyDown	41324	4	Index	21
511.7383333333333	0	n/a	307044	KeyDown	41324	4	Index	21
511.9000000000000	0	n/a	307141	StopPractice	41324	n/a	n/a	21
511.9016666666667	0	n/a	307142	StartRest	XXXXX	n/a	n/a	21
521.9250000000001	0	n/a	313156	StopRest	XXXXX	n/a	n/a	21
521.9266666666667	0	UPPT001	313157	StartPractice	41324	n/a	n/a	22
522.4066666666668	0	n/a	313445	KeyDown	41324	4	Index	22
522.5150000000000	0	n/a	313510	KeyDown	41324	1	Little	22
522.6950000000001	0	n/a	313618	KeyDown	41324	3	Middle	22
522.8250000000000	0	n/a	313696	KeyDown	41324	2	Ring	22
522.9583333333334	0	n/a	313776	KeyDown	41324	4	Index	22
523.1350000000000	0	n/a	313882	KeyDown	41324	4	Index	22
523.2916666666667	0	n/a	313976	KeyDown	41324	1	Little	22
523.4066666666668	0	n/a	314045	KeyDown	41324	3	Middle	22
523.5550000000001	0	n/a	314134	KeyDown	41324	2	Ring	22
523.7066666666667	0	n/a	314225	KeyDown	41324	4	Index	22
523.8850000000000	0	n/a	314332	KeyDown	41324	4	Index	22
524.1150000000000	0	n/a	314470	KeyDown	41324	1	Little	22
524.2083333333334	0	n/a	314526	KeyDown	41324	3	Middle	22
524.3600000000000	0	n/a	314617	KeyDown	41324	2	Ring	22
524.5150000000000	0	n/a	314710	KeyDown	41324	4	Index	22
524.6900000000001	0	n/a	314815	KeyDown	41324	4	Index	22
524.9166666666667	0	n/a	314951	KeyDown	41324	1	Little	22
525.0200000000000	0	n/a	315013	KeyDown	41324	1	Little	22
525.0666666666667	0	n/a	315041	KeyDown	41324	3	Middle	22
525.1483333333333	0	n/a	315090	KeyDown	41324	2	Ring	22
525.6950000000001	0	n/a	315418	KeyDown	41324	4	Index	22
526.2066666666667	0	n/a	315725	KeyDown	41324	3	Middle	22
526.9233333333334	0	n/a	316155	KeyDown	41324	4	Index	22
527.0833333333334	0	n/a	316251	KeyDown	41324	1	Little	22
527.3500000000000	0	n/a	316411	KeyDown	41324	3	Middle	22
527.5366666666667	0	n/a	316523	KeyDown	41324	2	Ring	22
527.7266666666667	0	n/a	316637	KeyDown	41324	4	Index	22
527.9233333333334	0	n/a	316755	KeyDown	41324	4	Index	22
528.3616666666667	0	n/a	317018	KeyDown	41324	1	Little	22
528.5666666666667	0	n/a	317141	KeyDown	41324	3	Middle	22
528.7566666666667	0	n/a	317255	KeyDown	41324	2	Ring	22
528.9500000000000	0	n/a	317371	KeyDown	41324	4	Index	22
529.1566666666668	0	n/a	317495	KeyDown	41324	4	Index	22
529.3816666666667	0	n/a	317630	KeyDown	41324	1	Little	22
529.5950000000000	0	n/a	317758	KeyDown	41324	3	Middle	22
529.7850000000001	0	n/a	317872	KeyDown	41324	2	Ring	22
529.9783333333334	0	n/a	317988	KeyDown	41324	4	Index	22
530.2033333333334	0	n/a	318123	KeyDown	41324	4	Index	22
530.4816666666667	0	n/a	318290	KeyDown	41324	1	Little	22
530.6850000000001	0	n/a	318412	KeyDown	41324	3	Middle	22
530.9133333333334	0	n/a	318549	KeyDown	41324	2	Ring	22
531.1433333333333	0	n/a	318687	KeyDown	41324	4	Index	22
531.4383333333334	0	n/a	318864	KeyDown	41324	1	Little	22
531.6600000000001	0	n/a	318997	KeyDown	41324	3	Middle	22
531.9733333333334	0	n/a	319185	StopPractice	41324	n/a	n/a	22
531.9750000000000	0	n/a	319186	StartRest	XXXXX	n/a	n/a	22
542.0016666666667	0	n/a	325202	StopRest	XXXXX	n/a	n/a	22
542.0033333333333	0	UPPT001	325203	StartPractice	41324	n/a	n/a	23
542.3550000000000	0	n/a	325414	KeyDown	41324	4	Index	23
542.4600000000000	0	n/a	325477	KeyDown	41324	1	Little	23
542.6216666666667	0	n/a	325574	KeyDown	41324	3	Middle	23
542.8150000000001	0	n/a	325690	KeyDown	41324	2	Ring	23
542.9450000000001	0	n/a	325768	KeyDown	41324	4	Index	23
543.1100000000000	0	n/a	325867	KeyDown	41324	4	Index	23
543.2466666666667	0	n/a	325949	KeyDown	41324	1	Little	23
543.4016666666668	0	n/a	326042	KeyDown	41324	3	Middle	23
543.5283333333334	0	n/a	326118	KeyDown	41324	2	Ring	23
543.6566666666668	0	n/a	326195	KeyDown	41324	4	Index	23
543.8500000000000	0	n/a	326311	KeyDown	41324	4	Index	23
544.0166666666667	0	n/a	326411	KeyDown	41324	1	Little	23
544.2116666666667	0	n/a	326528	KeyDown	41324	3	Middle	23
544.3400000000000	0	n/a	326605	KeyDown	41324	2	Ring	23
544.4716666666667	0	n/a	326684	KeyDown	41324	4	Index	23
544.6800000000001	0	n/a	326809	KeyDown	41324	4	Index	23
544.8400000000000	0	n/a	326905	KeyDown	41324	1	Little	23
545.0316666666668	0	n/a	327020	KeyDown	41324	3	Middle	23
545.1450000000000	0	n/a	327088	KeyDown	41324	2	Ring	23
545.2616666666667	0	n/a	327158	KeyDown	41324	4	Index	23
545.5666666666667	0	n/a	327341	KeyDown	41324	4	Index	23
545.7533333333333	0	n/a	327453	KeyDown	41324	4	Index	23
545.9350000000001	0	n/a	327562	KeyDown	41324	1	Little	23
546.0750000000000	0	n/a	327646	KeyDown	41324	3	Middle	23
546.3383333333334	0	n/a	327804	KeyDown	41324	2	Ring	23
546.6066666666667	0	n/a	327965	KeyDown	41324	4	Index	23
547.0416666666667	0	n/a	328226	KeyDown	41324	1	Little	23
547.2566666666667	0	n/a	328355	KeyDown	41324	3	Middle	23
547.6733333333334	0	n/a	328605	KeyDown	41324	4	Index	23
547.9350000000001	0	n/a	328762	KeyDown	41324	1	Little	23
548.1716666666667	0	n/a	328904	KeyDown	41324	4	Index	23
548.7466666666667	0	n/a	329249	KeyDown	41324	4	Index	23
548.9150000000001	0	n/a	329350	KeyDown	41324	1	Little	23
549.1266666666667	0	n/a	329477	KeyDown	41324	3	Middle	23
549.3166666666667	0	n/a	329591	KeyDown	41324	2	Ring	23
549.5100000000000	0	n/a	329707	KeyDown	41324	4	Index	23
549.7516666666667	0	n/a	329852	KeyDown	41324	4	Index	23
549.9016666666668	0	n/a	329942	KeyDown	41324	1	Little	23
550.3316666666667	0	n/a	330200	KeyDown	41324	3	Middle	23
550.4800000000000	0	n/a	330289	KeyDown	41324	2	Ring	23
550.7150000000000	0	n/a	330430	KeyDown	41324	4	Index	23
550.9966666666667	0	n/a	330599	KeyDown	41324	1	Little	23
551.2500000000000	0	n/a	330751	KeyDown	41324	4	Index	23
551.4300000000001	0	n/a	330859	KeyDown	41324	3	Middle	23
551.5900000000000	0	n/a	330955	KeyDown	41324	1	Little	23
551.9066666666668	0	n/a	331145	KeyDown	41324	4	Index	23
552.0500000000001	0	n/a	331231	StopPractice	41324	n/a	n/a	23
552.0516666666667	0	n/a	331232	StartRest	XXXXX	n/a	n/a	23
562.0750000000000	0	n/a	337246	StopRest	XXXXX	n/a	n/a	23
562.0766666666667	0	UPPT001	337247	StartPractice	41324	n/a	n/a	24
562.5783333333334	0	n/a	337548	KeyDown	41324	4	Index	24
562.7200000000000	0	n/a	337633	KeyDown	41324	1	Little	24
562.9900000000000	0	n/a	337795	KeyDown	41324	3	Middle	24
563.1100000000000	0	n/a	337867	KeyDown	41324	2	Ring	24
563.2333333333333	0	n/a	337941	KeyDown	41324	4	Index	24
563.5250000000001	0	n/a	338116	KeyDown	41324	1	Little	24
563.7300000000000	0	n/a	338239	KeyDown	41324	3	Middle	24
564.0000000000000	0	n/a	338401	KeyDown	41324	4	Index	24
564.2450000000000	0	n/a	338548	KeyDown	41324	4	Index	24
564.4600000000000	0	n/a	338677	KeyDown	41324	1	Little	24
564.6150000000000	0	n/a	338770	KeyDown	41324	3	Middle	24
564.7633333333333	0	n/a	338859	KeyDown	41324	2	Ring	24
564.9150000000001	0	n/a	338950	KeyDown	41324	4	Index	24
565.1166666666667	0	n/a	339071	KeyDown	41324	4	Index	24
565.2966666666667	0	n/a	339179	KeyDown	41324	1	Little	24
565.4583333333334	0	n/a	339276	KeyDown	41324	3	Middle	24
565.5916666666667	0	n/a	339356	KeyDown	41324	3	Middle	24
565.8033333333334	0	n/a	339483	KeyDown	41324	4	Index	24
566.0366666666667	0	n/a	339623	KeyDown	41324	4	Index	24
566.2600000000000	0	n/a	339757	KeyDown	41324	1	Little	24
566.4083333333334	0	n/a	339846	KeyDown	41324	3	Middle	24
566.5600000000001	0	n/a	339937	KeyDown	41324	2	Ring	24
566.7166666666667	0	n/a	340031	KeyDown	41324	4	Index	24
566.9350000000001	0	n/a	340162	KeyDown	41324	4	Index	24
567.1733333333334	0	n/a	340305	KeyDown	41324	1	Little	24
567.3150000000001	0	n/a	340390	KeyDown	41324	3	Middle	24
567.5183333333333	0	n/a	340512	KeyDown	41324	2	Ring	24
567.7233333333334	0	n/a	340635	KeyDown	41324	4	Index	24
568.0350000000001	0	n/a	340822	KeyDown	41324	1	Little	24
568.2433333333333	0	n/a	340947	KeyDown	41324	3	Middle	24
568.5600000000001	0	n/a	341137	KeyDown	41324	4	Index	24
568.7900000000001	0	n/a	341275	KeyDown	41324	4	Index	24
569.0733333333334	0	n/a	341445	KeyDown	41324	1	Little	24
569.2333333333333	0	n/a	341541	KeyDown	41324	3	Middle	24
569.4050000000001	0	n/a	341644	KeyDown	41324	2	Ring	24
569.5800000000000	0	n/a	341749	KeyDown	41324	4	Index	24
569.7950000000001	0	n/a	341878	KeyDown	41324	4	Index	24
570.4066666666668	0	n/a	342245	KeyDown	41324	3	Middle	24
570.9166666666667	0	n/a	342551	KeyDown	41324	4	Index	24
571.1450000000000	0	n/a	342688	KeyDown	41324	1	Little	24
571.3250000000000	0	n/a	342796	KeyDown	41324	3	Middle	24
571.5233333333334	0	n/a	342915	KeyDown	41324	2	Ring	24
571.7250000000000	0	n/a	343036	KeyDown	41324	4	Index	24
571.9533333333334	0	n/a	343173	KeyDown	41324	4	Index	24
572.1233333333333	0	n/a	343275	StopPractice	41324	n/a	n/a	24
572.1250000000000	0	n/a	343276	StartRest	XXXXX	n/a	n/a	24
582.1500000000001	0	n/a	349291	StopRest	XXXXX	n/a	n/a	24
582.1516666666668	0	UPPT001	349292	StartPractice	41324	n/a	n/a	25
582.5983333333334	0	n/a	349560	KeyDown	41324	4	Index	25
582.7600000000000	0	n/a	349657	KeyDown	41324	1	Little	25
582.9250000000001	0	n/a	349756	KeyDown	41324	3	Middle	25
583.0916666666667	0	n/a	349856	KeyDown	41324	2	Ring	25
583.2633333333333	0	n/a	349959	KeyDown	41324	4	Index	25
583.4650000000000	0	n/a	350080	KeyDown	41324	4	Index	25
583.6500000000001	0	n/a	350191	KeyDown	41324	1	Little	25
583.8000000000001	0	n/a	350281	KeyDown	41324	3	Middle	25
583.9466666666667	0	n/a	350369	KeyDown	41324	2	Ring	25
584.0950000000000	0	n/a	350458	KeyDown	41324	4	Index	25
584.2833333333334	0	n/a	350571	KeyDown	41324	4	Index	25
584.4750000000000	0	n/a	350686	KeyDown	41324	1	Little	25
584.6266666666667	0	n/a	350777	KeyDown	41324	3	Middle	25
584.7933333333334	0	n/a	350877	KeyDown	41324	2	Ring	25
584.9633333333334	0	n/a	350979	KeyDown	41324	4	Index	25
585.1933333333334	0	n/a	351117	KeyDown	41324	4	Index	25
585.4283333333334	0	n/a	351258	KeyDown	41324	1	Little	25
585.5933333333334	0	n/a	351357	KeyDown	41324	3	Middle	25
585.7400000000000	0	n/a	351445	KeyDown	41324	2	Ring	25
585.8900000000000	0	n/a	351535	KeyDown	41324	4	Index	25
586.1000000000000	0	n/a	351661	KeyDown	41324	4	Index	25
586.3000000000001	0	n/a	351781	KeyDown	41324	1	Little	25
586.4533333333334	0	n/a	351873	KeyDown	41324	3	Middle	25
586.6100000000000	0	n/a	351967	KeyDown	41324	2	Ring	25
586.7700000000000	0	n/a	352063	KeyDown	41324	4	Index	25
586.9700000000000	0	n/a	352183	KeyDown	41324	4	Index	25
587.1833333333334	0	n/a	352311	KeyDown	41324	1	Little	25
587.3550000000000	0	n/a	352414	KeyDown	41324	3	Middle	25
587.5116666666667	0	n/a	352508	KeyDown	41324	2	Ring	25
587.6700000000001	0	n/a	352603	KeyDown	41324	4	Index	25
587.8833333333333	0	n/a	352731	KeyDown	41324	4	Index	25
588.0666666666667	0	n/a	352841	KeyDown	41324	1	Little	25
588.2600000000000	0	n/a	352957	KeyDown	41324	3	Middle	25
588.4400000000001	0	n/a	353065	KeyDown	41324	2	Ring	25
588.6233333333333	0	n/a	353175	KeyDown	41324	4	Index	25
588.8300000000000	0	n/a	353299	KeyDown	41324	4	Index	25
589.0166666666667	0	n/a	353411	KeyDown	41324	1	Little	25
589.1900000000001	0	n/a	353515	KeyDown	41324	3	Middle	25
589.3500000000000	0	n/a	353611	KeyDown	41324	2	Ring	25
589.5150000000000	0	n/a	353710	KeyDown	41324	4	Index	25
589.7150000000000	0	n/a	353830	KeyDown	41324	4	Index	25
589.9116666666667	0	n/a	353948	KeyDown	41324	1	Little	25
590.0583333333334	0	n/a	354036	KeyDown	41324	3	Middle	25
590.2383333333333	0	n/a	354144	KeyDown	41324	2	Ring	25
590.4200000000001	0	n/a	354253	KeyDown	41324	4	Index	25
590.6433333333333	0	n/a	354387	KeyDown	41324	4	Index	25
590.8583333333333	0	n/a	354516	KeyDown	41324	1	Little	25
591.0350000000001	0	n/a	354622	KeyDown	41324	3	Middle	25
591.2700000000000	0	n/a	354763	KeyDown	41324	2	Ring	25
591.5083333333333	0	n/a	354906	KeyDown	41324	4	Index	25
591.6866666666667	0	n/a	355013	KeyDown	41324	4	Index	25
591.8816666666667	0	n/a	355130	KeyDown	41324	1	Little	25
592.0516666666667	0	n/a	355232	KeyDown	41324	3	Middle	25
592.1983333333334	0	n/a	355320	StopPractice	41324	n/a	n/a	25
592.2000000000000	0	n/a	355321	StartRest	XXXXX	n/a	n/a	25
602.2266666666667	0	n/a	361337	StopRest	XXXXX	n/a	n/a	25
602.2283333333334	0	UPPT001	361338	StartPractice	41324	n/a	n/a	26
602.8316666666667	0	n/a	361700	KeyDown	41324	4	Index	26
602.9716666666667	0	n/a	361784	KeyDown	41324	1	Little	26
603.1483333333334	0	n/a	361890	KeyDown	41324	3	Middle	26
603.3066666666667	0	n/a	361985	KeyDown	41324	2	Ring	26
603.4666666666667	0	n/a	362081	KeyDown	41324	4	Index	26
603.6500000000001	0	n/a	362191	KeyDown	41324	4	Index	26
603.8216666666667	0	n/a	362294	KeyDown	41324	1	Little	26
603.9683333333334	0	n/a	362382	KeyDown	41324	3	Middle	26
604.1150000000000	0	n/a	362470	KeyDown	41324	2	Ring	26
604.2650000000000	0	n/a	362560	KeyDown	41324	4	Index	26
604.4433333333334	0	n/a	362667	KeyDown	41324	4	Index	26
604.6416666666667	0	n/a	362786	KeyDown	41324	1	Little	26
604.8000000000001	0	n/a	362881	KeyDown	41324	3	Middle	26
604.9466666666667	0	n/a	362969	KeyDown	41324	2	Ring	26
605.0983333333334	0	n/a	363060	KeyDown	41324	4	Index	26
605.2916666666667	0	n/a	363176	KeyDown	41324	4	Index	26
605.4866666666667	0	n/a	363293	KeyDown	41324	1	Little	26
605.6450000000001	0	n/a	363388	KeyDown	41324	3	Middle	26
605.7883333333334	0	n/a	363474	KeyDown	41324	2	Ring	26
605.9350000000001	0	n/a	363562	KeyDown	41324	4	Index	26
606.1233333333333	0	n/a	363675	KeyDown	41324	4	Index	26
606.3300000000000	0	n/a	363799	KeyDown	41324	1	Little	26
606.4766666666667	0	n/a	363887	KeyDown	41324	3	Middle	26
606.6516666666668	0	n/a	363992	KeyDown	41324	2	Ring	26
606.8316666666667	0	n/a	364100	KeyDown	41324	4	Index	26
607.0300000000001	0	n/a	364219	KeyDown	41324	4	Index	26
607.2300000000000	0	n/a	364339	KeyDown	41324	1	Little	26
607.3966666666668	0	n/a	364439	KeyDown	41324	3	Middle	26
607.5683333333334	0	n/a	364542	KeyDown	41324	2	Ring	26
607.7433333333333	0	n/a	364647	KeyDown	41324	4	Index	26
607.9200000000001	0	n/a	364753	KeyDown	41324	4	Index	26
608.1150000000000	0	n/a	364870	KeyDown	41324	1	Little	26
608.2700000000001	0	n/a	364963	KeyDown	41324	3	Middle	26
608.4216666666667	0	n/a	365054	KeyDown	41324	2	Ring	26
608.5766666666667	0	n/a	365147	KeyDown	41324	4	Index	26
608.7766666666668	0	n/a	365267	KeyDown	41324	4	Index	26
608.9866666666667	0	n/a	365393	KeyDown	41324	1	Little	26
609.1250000000000	0	n/a	365476	KeyDown	41324	3	Middle	26
609.2933333333334	0	n/a	365577	KeyDown	41324	2	Ring	26
609.4650000000000	0	n/a	365680	KeyDown	41324	4	Index	26
609.6766666666667	0	n/a	365807	KeyDown	41324	4	Index	26
609.8816666666667	0	n/a	365930	KeyDown	41324	1	Little	26
610.0266666666668	0	n/a	366017	KeyDown	41324	3	Middle	26
610.2000000000000	0	n/a	366121	KeyDown	41324	2	Ring	26
610.3766666666667	0	n/a	366227	KeyDown	41324	4	Index	26
610.5716666666667	0	n/a	366344	KeyDown	41324	4	Index	26
610.8366666666667	0	n/a	366503	KeyDown	41324	1	Little	26
610.9733333333334	0	n/a	366585	KeyDown	41324	3	Middle	26
611.1466666666668	0	n/a	366689	KeyDown	41324	2	Ring	26
611.3250000000000	0	n/a	366796	KeyDown	41324	4	Index	26
611.5450000000001	0	n/a	366928	KeyDown	41324	4	Index	26
611.7450000000000	0	n/a	367048	KeyDown	41324	1	Little	26
611.9050000000001	0	n/a	367144	KeyDown	41324	3	Middle	26
612.2750000000001	0	n/a	367366	StopPractice	41324	n/a	n/a	26
612.2766666666668	0	n/a	367367	StartRest	XXXXX	n/a	n/a	26
622.3000000000001	0	n/a	373381	StopRest	XXXXX	n/a	n/a	26
622.3016666666667	0	UPPT001	373382	StartPractice	41324	n/a	n/a	27
622.7683333333333	0	n/a	373662	KeyDown	41324	4	Index	27
622.9233333333334	0	n/a	373755	KeyDown	41324	1	Little	27
623.0666666666667	0	n/a	373841	KeyDown	41324	3	Middle	27
623.2100000000000	0	n/a	373927	KeyDown	41324	2	Ring	27
623.3550000000000	0	n/a	374014	KeyDown	41324	4	Index	27
623.5633333333334	0	n/a	374139	KeyDown	41324	4	Index	27
623.8033333333334	0	n/a	374283	KeyDown	41324	1	Little	27
623.9016666666668	0	n/a	374342	KeyDown	41324	3	Middle	27
624.0433333333334	0	n/a	374427	KeyDown	41324	2	Ring	27
624.1866666666667	0	n/a	374513	KeyDown	41324	4	Index	27
624.3983333333334	0	n/a	374640	KeyDown	41324	4	Index	27
624.8983333333334	0	n/a	374940	KeyDown	41324	1	Little	27
625.0466666666667	0	n/a	375029	KeyDown	41324	3	Middle	27
625.2483333333333	0	n/a	375150	KeyDown	41324	2	Ring	27
625.4533333333334	0	n/a	375273	KeyDown	41324	4	Index	27
625.6350000000000	0	n/a	375382	KeyDown	41324	4	Index	27
625.7983333333334	0	n/a	375480	KeyDown	41324	1	Little	27
625.9350000000001	0	n/a	375562	KeyDown	41324	3	Middle	27
626.0850000000000	0	n/a	375652	KeyDown	41324	2	Ring	27
626.2383333333333	0	n/a	375744	KeyDown	41324	4	Index	27
626.4400000000001	0	n/a	375865	KeyDown	41324	4	Index	27
626.6716666666667	0	n/a	376004	KeyDown	41324	1	Little	27
626.8183333333334	0	n/a	376092	KeyDown	41324	3	Middle	27
627.0250000000001	0	n/a	376216	KeyDown	41324	2	Ring	27
627.2350000000000	0	n/a	376342	KeyDown	41324	4	Index	27
627.6233333333333	0	n/a	376575	KeyDown	41324	1	Little	27
627.9666666666667	0	n/a	376781	KeyDown	41324	3	Middle	27
628.2800000000001	0	n/a	376969	KeyDown	41324	4	Index	27
628.4800000000000	0	n/a	377089	KeyDown	41324	4	Index	27
628.6833333333334	0	n/a	377211	KeyDown	41324	1	Little	27
628.8033333333334	0	n/a	377283	KeyDown	41324	3	Middle	27
628.9483333333334	0	n/a	377370	KeyDown	41324	2	Ring	27
629.0950000000000	0	n/a	377458	KeyDown	41324	4	Index	27
629.2983333333334	0	n/a	377580	KeyDown	41324	4	Index	27
629.5450000000001	0	n/a	377728	KeyDown	41324	1	Little	27
629.6700000000001	0	n/a	377803	KeyDown	41324	3	Middle	27
629.8533333333334	0	n/a	377913	KeyDown	41324	2	Ring	27
630.0416666666667	0	n/a	378026	KeyDown	41324	4	Index	27
630.2483333333333	0	n/a	378150	KeyDown	41324	4	Index	27
630.4816666666667	0	n/a	378290	KeyDown	41324	1	Little	27
630.6200000000000	0	n/a	378373	KeyDown	41324	3	Middle	27
630.7750000000001	0	n/a	378466	KeyDown	41324	2	Ring	27
630.9333333333334	0	n/a	378561	KeyDown	41324	4	Index	27
631.1383333333333	0	n/a	378684	KeyDown	41324	4	Index	27
631.3733333333333	0	n/a	378825	KeyDown	41324	1	Little	27
631.5166666666667	0	n/a	378911	KeyDown	41324	3	Middle	27
631.7050000000000	0	n/a	379024	KeyDown	41324	2	Ring	27
631.8983333333334	0	n/a	379140	KeyDown	41324	4	Index	27
632.1183333333333	0	n/a	379272	KeyDown	41324	4	Index	27
632.3483333333334	0	n/a	379410	StopPractice	41324	n/a	n/a	27
632.3500000000000	0	n/a	379411	StartRest	XXXXX	n/a	n/a	27
642.3750000000000	0	n/a	385426	StopRest	XXXXX	n/a	n/a	27
642.3766666666667	0	UPPT001	385427	StartPractice	41324	n/a	n/a	28
642.8783333333333	0	n/a	385728	KeyDown	41324	4	Index	28
643.1200000000000	0	n/a	385873	KeyDown	41324	1	Little	28
643.2783333333334	0	n/a	385968	KeyDown	41324	3	Middle	28
643.4333333333334	0	n/a	386061	KeyDown	41324	2	Ring	28
643.5900000000000	0	n/a	386155	KeyDown	41324	4	Index	28
643.7400000000000	0	n/a	386245	KeyDown	41324	4	Index	28
643.9783333333334	0	n/a	386388	KeyDown	41324	1	Little	28
644.1050000000000	0	n/a	386464	KeyDown	41324	3	Middle	28
644.2666666666667	0	n/a	386561	KeyDown	41324	2	Ring	28
644.4316666666667	0	n/a	386660	KeyDown	41324	4	Index	28
644.6183333333333	0	n/a	386772	KeyDown	41324	4	Index	28
644.8900000000000	0	n/a	386935	KeyDown	41324	1	Little	28
645.0583333333334	0	n/a	387036	KeyDown	41324	3	Middle	28
645.2283333333334	0	n/a	387138	KeyDown	41324	2	Ring	28
645.4000000000001	0	n/a	387241	KeyDown	41324	4	Index	28
645.5983333333334	0	n/a	387360	KeyDown	41324	4	Index	28
645.8383333333334	0	n/a	387504	KeyDown	41324	1	Little	28
646.0366666666667	0	n/a	387623	KeyDown	41324	3	Middle	28
646.1783333333334	0	n/a	387708	KeyDown	41324	2	Ring	28
646.3233333333334	0	n/a	387795	KeyDown	41324	4	Index	28
646.5166666666667	0	n/a	387911	KeyDown	41324	4	Index	28
646.7100000000000	0	n/a	388027	KeyDown	41324	1	Little	28
646.8850000000000	0	n/a	388132	KeyDown	41324	3	Middle	28
647.0133333333333	0	n/a	388209	KeyDown	41324	2	Ring	28
647.1450000000001	0	n/a	388288	KeyDown	41324	4	Index	28
647.3600000000000	0	n/a	388417	KeyDown	41324	4	Index	28
647.5466666666667	0	n/a	388529	KeyDown	41324	1	Little	28
647.7000000000000	0	n/a	388621	KeyDown	41324	3	Middle	28
647.8600000000000	0	n/a	388717	KeyDown	41324	2	Ring	28
648.0233333333334	0	n/a	388815	KeyDown	41324	4	Index	28
648.2183333333334	0	n/a	388932	KeyDown	41324	4	Index	28
648.4233333333334	0	n/a	389055	KeyDown	41324	1	Little	28
648.6000000000000	0	n/a	389161	KeyDown	41324	3	Middle	28
648.7733333333334	0	n/a	389265	KeyDown	41324	2	Ring	28
648.9483333333334	0	n/a	389370	KeyDown	41324	4	Index	28
649.1550000000001	0	n/a	389494	KeyDown	41324	4	Index	28
649.3983333333334	0	n/a	389640	KeyDown	41324	1	Little	28
649.5800000000000	0	n/a	389749	KeyDown	41324	3	Middle	28
649.7216666666667	0	n/a	389834	KeyDown	41324	2	Ring	28
649.8650000000000	0	n/a	389920	KeyDown	41324	4	Index	28
650.0733333333334	0	n/a	390045	KeyDown	41324	4	Index	28
650.3500000000000	0	n/a	390211	KeyDown	41324	1	Little	28
650.5083333333333	0	n/a	390306	KeyDown	41324	3	Middle	28
650.6700000000001	0	n/a	390403	KeyDown	41324	2	Ring	28
650.8383333333334	0	n/a	390504	KeyDown	41324	4	Index	28
651.0483333333334	0	n/a	390630	KeyDown	41324	4	Index	28
651.3033333333334	0	n/a	390783	KeyDown	41324	1	Little	28
651.4950000000000	0	n/a	390898	KeyDown	41324	3	Middle	28
651.7500000000000	0	n/a	391051	KeyDown	41324	2	Ring	28
652.0100000000000	0	n/a	391207	KeyDown	41324	4	Index	28
652.2233333333334	0	n/a	391335	KeyDown	41324	4	Index	28
652.4233333333334	0	n/a	391455	StopPractice	41324	n/a	n/a	28
652.4250000000001	0	n/a	391456	StartRest	XXXXX	n/a	n/a	28
662.4500000000000	0	n/a	397471	StopRest	XXXXX	n/a	n/a	28
662.4516666666667	0	UPPT001	397472	StartPractice	41324	n/a	n/a	29
662.8733333333333	0	n/a	397725	KeyDown	41324	4	Index	29
663.0233333333334	0	n/a	397815	KeyDown	41324	1	Little	29
663.2833333333334	0	n/a	397971	KeyDown	41324	3	Middle	29
663.4583333333334	0	n/a	398076	KeyDown	41324	2	Ring	29
663.5933333333334	0	n/a	398157	KeyDown	41324	4	Index	29
663.7800000000001	0	n/a	398269	KeyDown	41324	4	Index	29
663.9216666666667	0	n/a	398354	KeyDown	41324	1	Little	29
664.0716666666667	0	n/a	398444	KeyDown	41324	3	Middle	29
664.2183333333334	0	n/a	398532	KeyDown	41324	2	Ring	29
664.3600000000000	0	n/a	398617	KeyDown	41324	4	Index	29
664.5550000000001	0	n/a	398734	KeyDown	41324	4	Index	29
664.7266666666667	0	n/a	398837	KeyDown	41324	1	Little	29
664.8750000000000	0	n/a	398926	KeyDown	41324	3	Middle	29
665.0300000000001	0	n/a	399019	KeyDown	41324	2	Ring	29
665.1533333333334	0	n/a	399093	KeyDown	41324	4	Index	29
665.3350000000000	0	n/a	399202	KeyDown	41324	4	Index	29
665.5033333333333	0	n/a	399303	KeyDown	41324	1	Little	29
665.6700000000001	0	n/a	399403	KeyDown	41324	3	Middle	29
665.8083333333334	0	n/a	399486	KeyDown	41324	2	Ring	29
665.9533333333334	0	n/a	399573	KeyDown	41324	4	Index	29
666.1533333333334	0	n/a	399693	KeyDown	41324	4	Index	29
666.3650000000000	0	n/a	399820	KeyDown	41324	1	Little	29
666.5150000000000	0	n/a	399910	KeyDown	41324	3	Middle	29
666.6516666666668	0	n/a	399992	KeyDown	41324	2	Ring	29
666.7816666666668	0	n/a	400070	KeyDown	41324	4	Index	29
666.9916666666667	0	n/a	400196	KeyDown	41324	4	Index	29
667.1900000000001	0	n/a	400315	KeyDown	41324	1	Little	29
667.3500000000000	0	n/a	400411	KeyDown	41324	3	Middle	29
667.4850000000000	0	n/a	400492	KeyDown	41324	2	Ring	29
667.6383333333333	0	n/a	400584	KeyDown	41324	4	Index	29
667.8433333333334	0	n/a	400707	KeyDown	41324	4	Index	29
668.0633333333334	0	n/a	400839	KeyDown	41324	1	Little	29
668.2583333333333	0	n/a	400956	KeyDown	41324	3	Middle	29
668.3816666666667	0	n/a	401030	KeyDown	41324	2	Ring	29
668.5650000000001	0	n/a	401140	KeyDown	41324	4	Index	29
668.8050000000001	0	n/a	401284	KeyDown	41324	4	Index	29
668.9433333333334	0	n/a	401367	KeyDown	41324	1	Little	29
669.1433333333334	0	n/a	401487	KeyDown	41324	3	Middle	29
669.2800000000001	0	n/a	401569	KeyDown	41324	2	Ring	29
669.4466666666667	0	n/a	401669	KeyDown	41324	4	Index	29
669.6466666666668	0	n/a	401789	KeyDown	41324	4	Index	29
669.7750000000001	0	n/a	401866	KeyDown	41324	1	Little	29
670.0083333333333	0	n/a	402006	KeyDown	41324	3	Middle	29
670.1583333333334	0	n/a	402096	KeyDown	41324	2	Ring	29
670.3116666666667	0	n/a	402188	KeyDown	41324	4	Index	29
670.5200000000001	0	n/a	402313	KeyDown	41324	4	Index	29
670.7033333333334	0	n/a	402423	KeyDown	41324	1	Little	29
671.0133333333333	0	n/a	402609	KeyDown	41324	3	Middle	29
671.1650000000001	0	n/a	402700	KeyDown	41324	2	Ring	29
671.3333333333334	0	n/a	402801	KeyDown	41324	4	Index	29
671.3650000000000	0	n/a	402820	KeyDown	41324	4	Index	29
671.5633333333334	0	n/a	402939	KeyDown	41324	4	Index	29
671.7400000000000	0	n/a	403045	KeyDown	41324	1	Little	29
671.9583333333334	0	n/a	403176	KeyDown	41324	2	Ring	29
671.9883333333333	0	n/a	403194	KeyDown	41324	3	Middle	29
672.1500000000001	0	n/a	403291	KeyDown	41324	2	Ring	29
672.3150000000001	0	n/a	403390	KeyDown	41324	4	Index	29
672.4983333333333	0	n/a	403500	StopPractice	41324	n/a	n/a	29
672.5000000000000	0	n/a	403501	StartRest	XXXXX	n/a	n/a	29
682.5416666666667	0	n/a	409526	StopRest	XXXXX	n/a	n/a	29
682.5433333333334	0	UPPT001	409527	StartPractice	41324	n/a	n/a	30
683.0033333333333	0	n/a	409803	KeyDown	41324	4	Index	30
683.1366666666667	0	n/a	409883	KeyDown	41324	1	Little	30
683.2950000000001	0	n/a	409978	KeyDown	41324	2	Ring	30
683.3233333333334	0	n/a	409995	KeyDown	41324	3	Middle	30
683.5300000000001	0	n/a	410119	KeyDown	41324	2	Ring	30
683.6616666666667	0	n/a	410198	KeyDown	41324	4	Index	30
683.8366666666667	0	n/a	410303	KeyDown	41324	4	Index	30
683.9550000000000	0	n/a	410374	KeyDown	41324	1	Little	30
684.1250000000000	0	n/a	410476	KeyDown	41324	3	Middle	30
684.2550000000000	0	n/a	410554	KeyDown	41324	2	Ring	30
684.3916666666668	0	n/a	410636	KeyDown	41324	4	Index	30
684.5683333333334	0	n/a	410742	KeyDown	41324	4	Index	30
684.7283333333334	0	n/a	410838	KeyDown	41324	1	Little	30
684.9416666666667	0	n/a	410966	KeyDown	41324	3	Middle	30
685.0883333333334	0	n/a	411054	KeyDown	41324	2	Ring	30
685.2166666666667	0	n/a	411131	KeyDown	41324	4	Index	30
685.3866666666667	0	n/a	411233	KeyDown	41324	4	Index	30
685.5800000000000	0	n/a	411349	KeyDown	41324	1	Little	30
685.7466666666667	0	n/a	411449	KeyDown	41324	3	Middle	30
685.8816666666667	0	n/a	411530	KeyDown	41324	2	Ring	30
686.0066666666667	0	n/a	411605	KeyDown	41324	4	Index	30
686.1916666666667	0	n/a	411716	KeyDown	41324	4	Index	30
686.3700000000000	0	n/a	411823	KeyDown	41324	1	Little	30
686.6100000000000	0	n/a	411967	KeyDown	41324	3	Middle	30
686.7800000000001	0	n/a	412069	KeyDown	41324	2	Ring	30
686.9433333333334	0	n/a	412167	KeyDown	41324	3	Middle	30
687.0833333333334	0	n/a	412251	KeyDown	41324	4	Index	30
687.2600000000000	0	n/a	412357	KeyDown	41324	4	Index	30
687.3866666666667	0	n/a	412433	KeyDown	41324	1	Little	30
687.5533333333334	0	n/a	412533	KeyDown	41324	3	Middle	30
687.7116666666667	0	n/a	412628	KeyDown	41324	2	Ring	30
687.8616666666667	0	n/a	412718	KeyDown	41324	4	Index	30
688.0400000000001	0	n/a	412825	KeyDown	41324	4	Index	30
688.2466666666667	0	n/a	412949	KeyDown	41324	1	Little	30
688.4400000000001	0	n/a	413065	KeyDown	41324	3	Middle	30
688.5700000000001	0	n/a	413143	KeyDown	41324	2	Ring	30
688.7383333333333	0	n/a	413244	KeyDown	41324	4	Index	30
688.9300000000001	0	n/a	413359	KeyDown	41324	4	Index	30
689.1366666666667	0	n/a	413483	KeyDown	41324	1	Little	30
689.3233333333334	0	n/a	413595	KeyDown	41324	3	Middle	30
689.4633333333334	0	n/a	413679	KeyDown	41324	2	Ring	30
689.6366666666667	0	n/a	413783	KeyDown	41324	4	Index	30
689.8466666666667	0	n/a	413909	KeyDown	41324	4	Index	30
690.0733333333334	0	n/a	414045	KeyDown	41324	1	Little	30
690.2400000000000	0	n/a	414145	KeyDown	41324	3	Middle	30
690.3766666666667	0	n/a	414227	KeyDown	41324	2	Ring	30
690.5183333333334	0	n/a	414312	KeyDown	41324	4	Index	30
690.7333333333333	0	n/a	414441	KeyDown	41324	4	Index	30
690.9200000000001	0	n/a	414553	KeyDown	41324	1	Little	30
691.1250000000000	0	n/a	414676	KeyDown	41324	3	Middle	30
691.2833333333334	0	n/a	414771	KeyDown	41324	2	Ring	30
691.4316666666667	0	n/a	414860	KeyDown	41324	4	Index	30
691.6300000000000	0	n/a	414979	KeyDown	41324	4	Index	30
691.8666666666667	0	n/a	415121	KeyDown	41324	1	Little	30
692.0733333333334	0	n/a	415245	KeyDown	41324	3	Middle	30
692.1950000000001	0	n/a	415318	KeyDown	41324	2	Ring	30
692.4116666666667	0	n/a	415448	KeyDown	41324	4	Index	30
692.5900000000000	0	n/a	415555	StopPractice	41324	n/a	n/a	30
692.5916666666667	0	n/a	415556	StartRest	XXXXX	n/a	n/a	30
702.6333333333333	0	n/a	421581	StopRest	XXXXX	n/a	n/a	30
702.6350000000000	0	UPPT001	421582	StartPractice	41324	n/a	n/a	31
703.0866666666667	0	n/a	421853	KeyDown	41324	4	Index	31
703.2216666666667	0	n/a	421934	KeyDown	41324	1	Little	31
703.3666666666667	0	n/a	422021	KeyDown	41324	3	Middle	31
703.5783333333334	0	n/a	422148	KeyDown	41324	2	Ring	31
703.7283333333334	0	n/a	422238	KeyDown	41324	4	Index	31
703.8883333333334	0	n/a	422334	KeyDown	41324	4	Index	31
704.0233333333334	0	n/a	422415	KeyDown	41324	1	Little	31
704.1950000000001	0	n/a	422518	KeyDown	41324	3	Middle	31
704.3216666666667	0	n/a	422594	KeyDown	41324	2	Ring	31
704.4550000000000	0	n/a	422674	KeyDown	41324	4	Index	31
704.6316666666667	0	n/a	422780	KeyDown	41324	4	Index	31
704.7716666666668	0	n/a	422864	KeyDown	41324	1	Little	31
704.9433333333334	0	n/a	422967	KeyDown	41324	3	Middle	31
705.0933333333334	0	n/a	423057	KeyDown	41324	2	Ring	31
705.2216666666667	0	n/a	423134	KeyDown	41324	4	Index	31
705.4383333333334	0	n/a	423264	KeyDown	41324	4	Index	31
705.6083333333333	0	n/a	423366	KeyDown	41324	1	Little	31
705.7766666666668	0	n/a	423467	KeyDown	41324	3	Middle	31
705.9166666666667	0	n/a	423551	KeyDown	41324	3	Middle	31
706.0266666666668	0	n/a	423617	KeyDown	41324	2	Ring	31
706.1633333333334	0	n/a	423699	KeyDown	41324	4	Index	31
706.3600000000000	0	n/a	423817	KeyDown	41324	4	Index	31
706.5316666666668	0	n/a	423920	KeyDown	41324	1	Little	31
706.6733333333334	0	n/a	424005	KeyDown	41324	3	Middle	31
706.8083333333334	0	n/a	424086	KeyDown	41324	2	Ring	31
706.9500000000000	0	n/a	424171	KeyDown	41324	4	Index	31
707.1350000000000	0	n/a	424282	KeyDown	41324	4	Index	31
707.2800000000001	0	n/a	424369	KeyDown	41324	1	Little	31
707.4866666666667	0	n/a	424493	KeyDown	41324	2	Ring	31
707.4983333333333	0	n/a	424500	KeyDown	41324	3	Middle	31
707.8333333333334	0	n/a	424701	KeyDown	41324	4	Index	31
708.0283333333334	0	n/a	424818	KeyDown	41324	4	Index	31
708.2300000000000	0	n/a	424939	KeyDown	41324	1	Little	31
708.3866666666667	0	n/a	425033	KeyDown	41324	3	Middle	31
708.5133333333334	0	n/a	425109	KeyDown	41324	2	Ring	31
708.6516666666668	0	n/a	425192	KeyDown	41324	4	Index	31
708.8566666666667	0	n/a	425315	KeyDown	41324	4	Index	31
709.0816666666667	0	n/a	425450	KeyDown	41324	1	Little	31
709.2183333333334	0	n/a	425532	KeyDown	41324	3	Middle	31
709.3766666666667	0	n/a	425627	KeyDown	41324	2	Ring	31
709.5266666666668	0	n/a	425717	KeyDown	41324	4	Index	31
709.7116666666667	0	n/a	425828	KeyDown	41324	4	Index	31
709.9616666666667	0	n/a	425978	KeyDown	41324	1	Little	31
710.1183333333333	0	n/a	426072	KeyDown	41324	3	Middle	31
710.2733333333334	0	n/a	426165	KeyDown	41324	2	Ring	31
710.4866666666667	0	n/a	426293	KeyDown	41324	3	Middle	31
710.5866666666667	0	n/a	426353	KeyDown	41324	4	Index	31
711.2583333333333	0	n/a	426756	KeyDown	41324	1	Little	31
711.4216666666667	0	n/a	426854	KeyDown	41324	3	Middle	31
711.6083333333333	0	n/a	426966	KeyDown	41324	2	Ring	31
711.7966666666667	0	n/a	427079	KeyDown	41324	4	Index	31
711.9683333333334	0	n/a	427182	KeyDown	41324	4	Index	31
712.1200000000000	0	n/a	427273	KeyDown	41324	1	Little	31
712.3083333333334	0	n/a	427386	KeyDown	41324	3	Middle	31
712.5116666666667	0	n/a	427508	KeyDown	41324	2	Ring	31
712.6816666666667	0	n/a	427610	StopPractice	41324	n/a	n/a	31
712.6833333333334	0	n/a	427611	StartRest	XXXXX	n/a	n/a	31
722.7233333333334	0	n/a	433635	StopRest	XXXXX	n/a	n/a	31
722.7250000000000	0	UPPT001	433636	StartPractice	41324	n/a	n/a	32
723.3383333333334	0	n/a	434004	KeyDown	41324	4	Index	32
723.5100000000000	0	n/a	434107	KeyDown	41324	1	Little	32
723.6566666666668	0	n/a	434195	KeyDown	41324	2	Ring	32
723.6933333333334	0	n/a	434217	KeyDown	41324	3	Middle	32
723.8916666666668	0	n/a	434336	KeyDown	41324	2	Ring	32
724.0183333333334	0	n/a	434412	KeyDown	41324	4	Index	32
724.1866666666667	0	n/a	434513	KeyDown	41324	4	Index	32
724.3516666666667	0	n/a	434612	KeyDown	41324	1	Little	32
724.5150000000001	0	n/a	434710	KeyDown	41324	3	Middle	32
724.6400000000001	0	n/a	434785	KeyDown	41324	2	Ring	32
724.7766666666668	0	n/a	434867	KeyDown	41324	4	Index	32
724.9500000000000	0	n/a	434971	KeyDown	41324	4	Index	32
725.0866666666667	0	n/a	435053	KeyDown	41324	1	Little	32
725.2833333333334	0	n/a	435171	KeyDown	41324	3	Middle	32
725.4266666666667	0	n/a	435257	KeyDown	41324	2	Ring	32
725.5616666666667	0	n/a	435338	KeyDown	41324	4	Index	32
725.7516666666667	0	n/a	435452	KeyDown	41324	4	Index	32
725.8966666666668	0	n/a	435539	KeyDown	41324	1	Little	32
726.1016666666667	0	n/a	435662	KeyDown	41324	3	Middle	32
726.2416666666667	0	n/a	435746	KeyDown	41324	2	Ring	32
726.3750000000000	0	n/a	435826	KeyDown	41324	4	Index	32
726.5666666666667	0	n/a	435941	KeyDown	41324	4	Index	32
726.6850000000001	0	n/a	436012	KeyDown	41324	1	Little	32
726.8716666666667	0	n/a	436124	KeyDown	41324	3	Middle	32
727.0266666666668	0	n/a	436217	KeyDown	41324	2	Ring	32
727.1966666666667	0	n/a	436319	KeyDown	41324	4	Index	32
727.3833333333333	0	n/a	436431	KeyDown	41324	4	Index	32
727.5650000000001	0	n/a	436540	KeyDown	41324	1	Little	32
727.7316666666667	0	n/a	436640	KeyDown	41324	3	Middle	32
727.9200000000001	0	n/a	436753	KeyDown	41324	2	Ring	32
728.1133333333333	0	n/a	436869	KeyDown	41324	4	Index	32
728.3233333333334	0	n/a	436995	KeyDown	41324	4	Index	32
728.4866666666667	0	n/a	437093	KeyDown	41324	1	Little	32
728.6566666666668	0	n/a	437195	KeyDown	41324	3	Middle	32
728.8016666666667	0	n/a	437282	KeyDown	41324	2	Ring	32
728.9916666666667	0	n/a	437396	KeyDown	41324	4	Index	32
729.1916666666667	0	n/a	437516	KeyDown	41324	4	Index	32
729.3483333333334	0	n/a	437610	KeyDown	41324	1	Little	32
729.5266666666668	0	n/a	437717	KeyDown	41324	3	Middle	32
729.7033333333334	0	n/a	437823	KeyDown	41324	2	Ring	32
729.8316666666667	0	n/a	437900	KeyDown	41324	4	Index	32
730.0316666666668	0	n/a	438020	KeyDown	41324	4	Index	32
730.2083333333334	0	n/a	438126	KeyDown	41324	1	Little	32
730.4166666666667	0	n/a	438251	KeyDown	41324	3	Middle	32
730.6250000000000	0	n/a	438376	KeyDown	41324	2	Ring	32
730.7666666666668	0	n/a	438461	KeyDown	41324	4	Index	32
730.9533333333334	0	n/a	438573	KeyDown	41324	4	Index	32
731.2083333333334	0	n/a	438726	KeyDown	41324	1	Little	32
731.4150000000001	0	n/a	438850	KeyDown	41324	3	Middle	32
731.6100000000000	0	n/a	438967	KeyDown	41324	2	Ring	32
731.8166666666667	0	n/a	439091	KeyDown	41324	4	Index	32
732.0116666666668	0	n/a	439208	KeyDown	41324	4	Index	32
732.1783333333334	0	n/a	439308	KeyDown	41324	1	Little	32
732.4266666666667	0	n/a	439457	KeyDown	41324	3	Middle	32
732.6166666666667	0	n/a	439571	KeyDown	41324	2	Ring	32
732.7716666666668	0	n/a	439664	StopPractice	41324	n/a	n/a	32
732.7733333333334	0	n/a	439665	StartRest	XXXXX	n/a	n/a	32
742.8150000000001	0	n/a	445690	StopRest	XXXXX	n/a	n/a	32
742.8166666666667	0	UPPT001	445691	StartPractice	41324	n/a	n/a	33
743.3100000000001	0	n/a	445987	KeyDown	41324	4	Index	33
743.4583333333334	0	n/a	446076	KeyDown	41324	1	Little	33
