onset	duration	channel	onset_sample_idx	event_type	target_sequence	keypress_id	finger_label	trial_number
25.4800000000000	0	UPPT001	15289	StartPractice	41324	n/a	n/a	1
28.9033333333333	0	n/a	17343	KeyDown	41324	4	Index	1
29.9866666666667	0	n/a	17993	KeyDown	41324	3	Middle	1
32.4450000000000	0	n/a	19468	KeyDown	41324	1	Little	1
33.5516666666667	0	n/a	20132	KeyDown	41324	3	Middle	1
34.5416666666667	0	n/a	20726	KeyDown	41324	2	Ring	1
35.3516666666667	0	n/a	21212	KeyDown	41324	4	Index	1
35.5183333333333	0	n/a	21312	StopPractice	41324	n/a	n/a	1
35.5200000000000	0	n/a	21313	StartRest	XXXXX	n/a	n/a	1
45.5533333333333	0	n/a	27333	StopRest	XXXXX	n/a	n/a	1
45.5550000000000	0	UPPT001	27334	StartPractice	41324	n/a	n/a	2
46.8683333333333	0	n/a	28122	KeyDown	41324	4	Index	2
47.6516666666667	0	n/a	28592	KeyDown	41324	1	Little	2
49.0450000000000	0	n/a	29428	KeyDown	41324	3	Middle	2
49.7966666666667	0	n/a	29879	KeyDown	41324	2	Ring	2
50.6016666666667	0	n/a	30362	KeyDown	41324	4	Index	2
51.8316666666667	0	n/a	31100	KeyDown	41324	4	Index	2
53.7116666666667	0	n/a	32228	KeyDown	41324	1	Little	2
55.0883333333333	0	n/a	33054	KeyDown	41324	3	Middle	2
55.5933333333333	0	n/a	33357	StopPractice	41324	n/a	n/a	2
55.5950000000000	0	n/a	33358	StartRest	XXXXX	n/a	n/a	2
65.6283333333333	0	n/a	39378	StopRest	XXXXX	n/a	n/a	2
65.6300000000000	0	UPPT001	39379	StartPractice	41324	n/a	n/a	3
66.7633333333333	0	n/a	40059	KeyDown	41324	4	Index	3
67.4600000000000	0	n/a	40477	KeyDown	41324	1	Little	3
68.3666666666667	0	n/a	41021	KeyDown	41324	3	Middle	3
69.1883333333333	0	n/a	41514	KeyDown	41324	2	Ring	3
70.3216666666667	0	n/a	42194	KeyDown	41324	4	Index	3
71.8366666666667	0	n/a	43103	KeyDown	41324	4	Index	3
72.8866666666667	0	n/a	43733	KeyDown	41324	1	Little	3
73.5950000000000	0	n/a	44158	KeyDown	41324	3	Middle	3
74.1683333333333	0	n/a	44502	KeyDown	41324	2	Ring	3
74.5983333333333	0	n/a	44760	KeyDown	41324	4	Index	3
75.6683333333333	0	n/a	45402	StopPractice	41324	n/a	n/a	3
75.6700000000000	0	n/a	45403	StartRest	XXXXX	n/a	n/a	3
85.7033333333333	0	n/a	51423	StopRest	XXXXX	n/a	n/a	3
85.7050000000000	0	UPPT001	51424	StartPractice	41324	n/a	n/a	4
86.7416666666667	0	n/a	52046	KeyDown	41324	4	Index	4
87.3583333333333	0	n/a	52416	KeyDown	41324	1	Little	4
88.2216666666667	0	n/a	52934	KeyDown	41324	3	Middle	4
89.0500000000000	0	n/a	53431	KeyDown	41324	2	Ring	4
90.0000000000000	0	n/a	54001	KeyDown	41324	4	Index	4
90.8616666666667	0	n/a	54518	KeyDown	41324	4	Index	4
91.8033333333333	0	n/a	55083	KeyDown	41324	1	Little	4
92.5633333333333	0	n/a	55539	KeyDown	41324	3	Middle	4
92.9450000000000	0	n/a	55768	KeyDown	41324	2	Ring	4
93.3366666666667	0	n/a	56003	KeyDown	41324	4	Index	4
94.2883333333333	0	n/a	56574	KeyDown	41324	4	Index	4
94.9216666666667	0	n/a	56954	KeyDown	41324	1	Little	4
95.6250000000000	0	n/a	57376	KeyDown	41324	3	Middle	4
95.7433333333333	0	n/a	57447	StopPractice	41324	n/a	n/a	4
95.7450000000000	0	n/a	57448	StartRest	XXXXX	n/a	n/a	4
105.7783333333333	0	n/a	63468	StopRest	XXXXX	n/a	n/a	4
105.7800000000000	0	UPPT001	63469	StartPractice	41324	n/a	n/a	5
106.5550000000000	0	n/a	63934	KeyDown	41324	4	Index	5
107.2066666666667	0	n/a	64325	KeyDown	41324	1	Little	5
107.9283333333333	0	n/a	64758	KeyDown	41324	3	Middle	5
108.4633333333333	0	n/a	65079	KeyDown	41324	2	Ring	5
109.0950000000000	0	n/a	65458	KeyDown	41324	4	Index	5
109.7366666666667	0	n/a	65843	KeyDown	41324	4	Index	5
110.2583333333333	0	n/a	66156	KeyDown	41324	1	Little	5
110.8516666666667	0	n/a	66512	KeyDown	41324	3	Middle	5
111.3583333333333	0	n/a	66816	KeyDown	41324	2	Ring	5
112.0916666666667	0	n/a	67256	KeyDown	41324	4	Index	5
112.7533333333333	0	n/a	67653	KeyDown	41324	4	Index	5
113.2366666666667	0	n/a	67943	KeyDown	41324	1	Little	5
113.8183333333333	0	n/a	68292	KeyDown	41324	3	Middle	5
114.3266666666667	0	n/a	68597	KeyDown	41324	2	Ring	5
114.7600000000000	0	n/a	68857	KeyDown	41324	4	Index	5
115.8183333333333	0	n/a	69492	StopPractice	41324	n/a	n/a	5
115.8200000000000	0	n/a	69493	StartRest	XXXXX	n/a	n/a	5
125.8516666666667	0	n/a	75512	StopRest	XXXXX	n/a	n/a	5
125.8533333333333	0	UPPT001	75513	StartPractice	41324	n/a	n/a	6
126.5366666666667	0	n/a	75923	KeyDown	41324	4	Index	6
127.1416666666667	0	n/a	76286	KeyDown	41324	1	Little	6
127.7133333333333	0	n/a	76629	KeyDown	41324	3	Middle	6
128.1866666666667	0	n/a	76913	KeyDown	41324	2	Ring	6
128.9550000000000	0	n/a	77374	KeyDown	41324	4	Index	6
129.4883333333333	0	n/a	77694	KeyDown	41324	4	Index	6
130.2066666666667	0	n/a	78125	KeyDown	41324	1	Little	6
130.7500000000000	0	n/a	78451	KeyDown	41324	3	Middle	6
131.3166666666667	0	n/a	78791	KeyDown	41324	2	Ring	6
131.8400000000000	0	n/a	79105	KeyDown	41324	4	Index	6
132.3466666666667	0	n/a	79409	KeyDown	41324	4	Index	6
132.8350000000000	0	n/a	79702	KeyDown	41324	1	Little	6
133.2950000000000	0	n/a	79978	KeyDown	41324	3	Middle	6
133.7666666666667	0	n/a	80261	KeyDown	41324	2	Ring	6
134.2200000000000	0	n/a	80533	KeyDown	41324	4	Index	6
134.7916666666667	0	n/a	80876	KeyDown	41324	4	Index	6
135.3066666666667	0	n/a	81185	KeyDown	41324	1	Little	6
135.7716666666667	0	n/a	81464	KeyDown	41324	3	Middle	6
135.8916666666667	0	n/a	81536	StopPractice	41324	n/a	n/a	6
135.8933333333333	0	n/a	81537	StartRest	XXXXX	n/a	n/a	6
145.9283333333333	0	n/a	87558	StopRest	XXXXX	n/a	n/a	6
145.9300000000000	0	UPPT001	87559	StartPractice	41324	n/a	n/a	7
146.7666666666667	0	n/a	88061	KeyDown	41324	4	Index	7
147.3216666666667	0	n/a	88394	KeyDown	41324	1	Little	7
147.9200000000000	0	n/a	88753	KeyDown	41324	3	Middle	7
148.5383333333334	0	n/a	89124	KeyDown	41324	2	Ring	7
149.2833333333333	0	n/a	89571	KeyDown	41324	4	Index	7
149.8616666666667	0	n/a	89918	KeyDown	41324	4	Index	7
150.3650000000000	0	n/a	90220	KeyDown	41324	1	Little	7
150.9283333333333	0	n/a	90558	KeyDown	41324	3	Middle	7
151.3766666666667	0	n/a	90827	KeyDown	41324	2	Ring	7
152.1816666666667	0	n/a	91310	KeyDown	41324	4	Index	7
152.6800000000000	0	n/a	91609	KeyDown	41324	4	Index	7
153.1316666666667	0	n/a	91880	KeyDown	41324	1	Little	7
153.6916666666667	0	n/a	92216	KeyDown	41324	3	Middle	7
154.0683333333334	0	n/a	92442	KeyDown	41324	2	Ring	7
154.3833333333334	0	n/a	92631	KeyDown	41324	4	Index	7
155.2783333333333	0	n/a	93168	KeyDown	41324	4	Index	7
155.7083333333333	0	n/a	93426	KeyDown	41324	1	Little	7
155.9683333333333	0	n/a	93582	StopPractice	41324	n/a	n/a	7
155.9700000000000	0	n/a	93583	StartRest	XXXXX	n/a	n/a	7
166.0033333333333	0	n/a	99603	StopRest	XXXXX	n/a	n/a	7
166.0050000000000	0	UPPT001	99604	StartPractice	41324	n/a	n/a	8
166.9083333333333	0	n/a	100146	KeyDown	41324	4	Index	8
167.6183333333333	0	n/a	100572	KeyDown	41324	1	Little	8
168.2883333333334	0	n/a	100974	KeyDown	41324	3	Middle	8
168.6983333333334	0	n/a	101220	KeyDown	41324	2	Ring	8
169.2083333333333	0	n/a	101526	KeyDown	41324	4	Index	8
169.8483333333334	0	n/a	101910	KeyDown	41324	4	Index	8
170.2933333333334	0	n/a	102177	KeyDown	41324	1	Little	8
170.9116666666667	0	n/a	102548	KeyDown	41324	3	Middle	8
171.3083333333333	0	n/a	102786	KeyDown	41324	2	Ring	8
171.8966666666667	0	n/a	103139	KeyDown	41324	4	Index	8
172.3733333333333	0	n/a	103425	KeyDown	41324	4	Index	8
172.7666666666667	0	n/a	103661	KeyDown	41324	1	Little	8
173.3816666666667	0	n/a	104030	KeyDown	41324	3	Middle	8
173.8233333333334	0	n/a	104295	KeyDown	41324	2	Ring	8
174.2933333333334	0	n/a	104577	KeyDown	41324	4	Index	8
174.7416666666667	0	n/a	104846	KeyDown	41324	4	Index	8
175.4450000000000	0	n/a	105268	KeyDown	41324	1	Little	8
175.9916666666667	0	n/a	105596	KeyDown	41324	3	Middle	8
176.0433333333334	0	n/a	105627	StopPractice	41324	n/a	n/a	8
176.0450000000000	0	n/a	105628	StartRest	XXXXX	n/a	n/a	8
186.0766666666667	0	n/a	111647	StopRest	XXXXX	n/a	n/a	8
186.0783333333333	0	UPPT001	111648	StartPractice	41324	n/a	n/a	9
186.8916666666667	0	n/a	112136	KeyDown	41324	4	Index	9
187.4966666666667	0	n/a	112499	KeyDown	41324	1	Little	9
188.3800000000000	0	n/a	113029	KeyDown	41324	3	Middle	9
188.8383333333333	0	n/a	113304	KeyDown	41324	2	Ring	9
189.3566666666667	0	n/a	113615	KeyDown	41324	4	Index	9
190.0866666666667	0	n/a	114053	KeyDown	41324	4	Index	9
190.6266666666667	0	n/a	114377	KeyDown	41324	1	Little	9
191.8866666666667	0	n/a	115133	KeyDown	41324	3	Middle	9
192.4383333333333	0	n/a	115464	KeyDown	41324	2	Ring	9
192.9133333333334	0	n/a	115749	KeyDown	41324	4	Index	9
193.3666666666667	0	n/a	116021	KeyDown	41324	4	Index	9
193.8650000000000	0	n/a	116320	KeyDown	41324	1	Little	9
194.6983333333334	0	n/a	116820	KeyDown	41324	3	Middle	9
195.1783333333333	0	n/a	117108	KeyDown	41324	2	Ring	9
195.8166666666667	0	n/a	117491	KeyDown	41324	4	Index	9
196.1166666666667	0	n/a	117671	StopPractice	41324	n/a	n/a	9
196.1183333333333	0	n/a	117672	StartRest	XXXXX	n/a	n/a	9
206.1516666666667	0	n/a	123692	StopRest	XXXXX	n/a	n/a	9
206.1533333333333	0	UPPT001	123693	StartPractice	41324	n/a	n/a	10
206.8016666666667	0	n/a	124082	KeyDown	41324	4	Index	10
207.2916666666667	0	n/a	124376	KeyDown	41324	1	Little	10
208.2366666666667	0	n/a	124943	KeyDown	41324	3	Middle	10
208.6700000000000	0	n/a	125203	KeyDown	41324	2	Ring	10
209.1466666666667	0	n/a	125489	KeyDown	41324	4	Index	10
209.7266666666667	0	n/a	125837	KeyDown	41324	4	Index	10
210.1933333333334	0	n/a	126117	KeyDown	41324	1	Little	10
211.1033333333334	0	n/a	126663	KeyDown	41324	3	Middle	10
211.5666666666667	0	n/a	126941	KeyDown	41324	2	Ring	10
212.1850000000000	0	n/a	127312	KeyDown	41324	4	Index	10
212.7016666666667	0	n/a	127622	KeyDown	41324	4	Index	10
213.1016666666667	0	n/a	127862	KeyDown	41324	1	Little	10
213.7433333333333	0	n/a	128247	KeyDown	41324	3	Middle	10
214.1650000000000	0	n/a	128500	KeyDown	41324	2	Ring	10
214.5700000000000	0	n/a	128743	KeyDown	41324	4	Index	10
215.1100000000000	0	n/a	129067	KeyDown	41324	4	Index	10
215.5666666666667	0	n/a	129341	KeyDown	41324	1	Little	10
216.1700000000000	0	n/a	129703	KeyDown	41324	3	Middle	10
216.1916666666667	0	n/a	129716	StopPractice	41324	n/a	n/a	10
216.1933333333334	0	n/a	129717	StartRest	XXXXX	n/a	n/a	10
226.2266666666667	0	n/a	135737	StopRest	XXXXX	n/a	n/a	10
226.2283333333334	0	UPPT001	135738	StartPractice	41324	n/a	n/a	11
226.7550000000000	0	n/a	136054	KeyDown	41324	4	Index	11
227.2600000000000	0	n/a	136357	KeyDown	41324	1	Little	11
227.8416666666667	0	n/a	136706	KeyDown	41324	3	Middle	11
228.2383333333333	0	n/a	136944	KeyDown	41324	2	Ring	11
228.9600000000000	0	n/a	137377	KeyDown	41324	4	Index	11
229.3633333333333	0	n/a	137619	KeyDown	41324	4	Index	11
229.7666666666667	0	n/a	137861	KeyDown	41324	1	Little	11
230.4933333333333	0	n/a	138297	KeyDown	41324	3	Middle	11
230.9150000000000	0	n/a	138550	KeyDown	41324	2	Ring	11
231.4566666666667	0	n/a	138875	KeyDown	41324	4	Index	11
231.8816666666667	0	n/a	139130	KeyDown	41324	4	Index	11
232.2500000000000	0	n/a	139351	KeyDown	41324	1	Little	11
232.8750000000000	0	n/a	139726	KeyDown	41324	3	Middle	11
233.2750000000000	0	n/a	139966	KeyDown	41324	2	Ring	11
233.7400000000000	0	n/a	140245	KeyDown	41324	4	Index	11
234.1650000000000	0	n/a	140500	KeyDown	41324	4	Index	11
234.5216666666667	0	n/a	140714	KeyDown	41324	1	Little	11
234.9600000000000	0	n/a	140977	KeyDown	41324	3	Middle	11
235.3283333333333	0	n/a	141198	KeyDown	41324	2	Ring	11
235.7450000000000	0	n/a	141448	KeyDown	41324	4	Index	11
236.2666666666667	0	n/a	141761	StopPractice	41324	n/a	n/a	11
236.2683333333333	0	n/a	141762	StartRest	XXXXX	n/a	n/a	11
246.3016666666667	0	n/a	147782	StopRest	XXXXX	n/a	n/a	11
246.3033333333333	0	UPPT001	147783	StartPractice	41324	n/a	n/a	12
246.7550000000000	0	n/a	148054	KeyDown	41324	4	Index	12
247.1366666666667	0	n/a	148283	KeyDown	41324	1	Little	12
247.6166666666667	0	n/a	148571	KeyDown	41324	3	Middle	12
247.9983333333334	0	n/a	148800	KeyDown	41324	2	Ring	12
248.4166666666667	0	n/a	149051	KeyDown	41324	4	Index	12
248.8100000000000	0	n/a	149287	KeyDown	41324	4	Index	12
249.1816666666667	0	n/a	149510	KeyDown	41324	1	Little	12
249.7500000000000	0	n/a	149851	KeyDown	41324	3	Middle	12
250.1666666666667	0	n/a	150101	KeyDown	41324	2	Ring	12
250.5466666666667	0	n/a	150329	KeyDown	41324	4	Index	12
250.9400000000000	0	n/a	150565	KeyDown	41324	4	Index	12
251.3366666666667	0	n/a	150803	KeyDown	41324	1	Little	12
251.7716666666667	0	n/a	151064	KeyDown	41324	3	Middle	12
252.2633333333333	0	n/a	151359	KeyDown	41324	2	Ring	12
252.7683333333333	0	n/a	151662	KeyDown	41324	4	Index	12
253.1800000000000	0	n/a	151909	KeyDown	41324	4	Index	12
253.5566666666667	0	n/a	152135	KeyDown	41324	1	Little	12
254.0116666666667	0	n/a	152408	KeyDown	41324	3	Middle	12
254.3383333333333	0	n/a	152604	KeyDown	41324	2	Ring	12
254.7016666666667	0	n/a	152822	KeyDown	41324	3	Middle	12
255.1783333333333	0	n/a	153108	KeyDown	41324	4	Index	12
255.5333333333334	0	n/a	153321	KeyDown	41324	1	Little	12
256.2400000000000	0	n/a	153745	KeyDown	41324	3	Middle	12
256.3416666666667	0	n/a	153806	StopPractice	41324	n/a	n/a	12
256.3433333333334	0	n/a	153807	StartRest	XXXXX	n/a	n/a	12
266.3766666666667	0	n/a	159827	StopRest	XXXXX	n/a	n/a	12
266.3783333333333	0	UPPT001	159828	StartPractice	41324	n/a	n/a	13
266.9650000000000	0	n/a	160180	KeyDown	41324	4	Index	13
267.3566666666667	0	n/a	160415	KeyDown	41324	1	Little	13
267.9216666666667	0	n/a	160754	KeyDown	41324	3	Middle	13
268.3466666666667	0	n/a	161009	KeyDown	41324	2	Ring	13
269.2400000000000	0	n/a	161545	KeyDown	41324	4	Index	13
269.5733333333333	0	n/a	161745	KeyDown	41324	4	Index	13
270.0300000000000	0	n/a	162019	KeyDown	41324	1	Little	13
270.5350000000000	0	n/a	162322	KeyDown	41324	3	Middle	13
270.9283333333333	0	n/a	162558	KeyDown	41324	2	Ring	13
271.4200000000000	0	n/a	162853	KeyDown	41324	4	Index	13
271.8433333333334	0	n/a	163107	KeyDown	41324	4	Index	13
272.1733333333333	0	n/a	163305	KeyDown	41324	1	Little	13
272.6400000000000	0	n/a	163585	KeyDown	41324	3	Middle	13
273.0650000000000	0	n/a	163840	KeyDown	41324	2	Ring	13
273.4866666666667	0	n/a	164093	KeyDown	41324	4	Index	13
273.8800000000000	0	n/a	164329	KeyDown	41324	4	Index	13
274.2883333333334	0	n/a	164574	KeyDown	41324	1	Little	13
274.8150000000000	0	n/a	164890	KeyDown	41324	3	Middle	13
275.1750000000000	0	n/a	165106	KeyDown	41324	2	Ring	13
275.7583333333333	0	n/a	165456	KeyDown	41324	4	Index	13
276.1150000000000	0	n/a	165670	KeyDown	41324	4	Index	13
276.4166666666667	0	n/a	165851	StopPractice	41324	n/a	n/a	13
276.4183333333334	0	n/a	165852	StartRest	XXXXX	n/a	n/a	13
286.4516666666667	0	n/a	171872	StopRest	XXXXX	n/a	n/a	13
286.4533333333334	0	UPPT001	171873	StartPractice	41324	n/a	n/a	14
287.1550000000000	0	n/a	172294	KeyDown	41324	4	Index	14
287.5450000000000	0	n/a	172528	KeyDown	41324	1	Little	14
288.0600000000000	0	n/a	172837	KeyDown	41324	3	Middle	14
288.4150000000000	0	n/a	173050	KeyDown	41324	2	Ring	14
288.9700000000000	0	n/a	173383	KeyDown	41324	4	Index	14
289.4133333333334	0	n/a	173649	KeyDown	41324	4	Index	14
289.7700000000000	0	n/a	173863	KeyDown	41324	1	Little	14
290.3200000000000	0	n/a	174193	KeyDown	41324	3	Middle	14
290.7166666666667	0	n/a	174431	KeyDown	41324	2	Ring	14
291.1250000000000	0	n/a	174676	KeyDown	41324	4	Index	14
291.4666666666667	0	n/a	174881	KeyDown	41324	4	Index	14
291.8516666666667	0	n/a	175112	KeyDown	41324	1	Little	14
292.3866666666667	0	n/a	175433	KeyDown	41324	3	Middle	14
292.9116666666667	0	n/a	175748	KeyDown	41324	2	Ring	14
293.5583333333333	0	n/a	176136	KeyDown	41324	4	Index	14
293.9633333333334	0	n/a	176379	KeyDown	41324	4	Index	14
294.3533333333334	0	n/a	176613	KeyDown	41324	1	Little	14
294.9700000000000	0	n/a	176983	KeyDown	41324	3	Middle	14
295.3150000000000	0	n/a	177190	KeyDown	41324	2	Ring	14
295.7150000000000	0	n/a	177430	KeyDown	41324	4	Index	14
296.1450000000000	0	n/a	177688	KeyDown	41324	4	Index	14
296.4916666666667	0	n/a	177896	StopPractice	41324	n/a	n/a	14
296.4933333333333	0	n/a	177897	StartRest	XXXXX	n/a	n/a	14
306.5266666666667	0	n/a	183917	StopRest	XXXXX	n/a	n/a	14
306.5283333333334	0	UPPT001	183918	StartPractice	41324	n/a	n/a	15
307.0666666666667	0	n/a	184241	KeyDown	41324	4	Index	15
307.4366666666667	0	n/a	184463	KeyDown	41324	1	Little	15
308.2166666666667	0	n/a	184931	KeyDown	41324	3	Middle	15
308.5466666666667	0	n/a	185129	KeyDown	41324	2	Ring	15
308.9600000000000	0	n/a	185377	KeyDown	41324	4	Index	15
309.3716666666667	0	n/a	185624	KeyDown	41324	4	Index	15
309.7283333333334	0	n/a	185838	KeyDown	41324	1	Little	15
310.1850000000000	0	n/a	186112	KeyDown	41324	3	Middle	15
310.5933333333334	0	n/a	186357	KeyDown	41324	2	Ring	15
311.0166666666667	0	n/a	186611	KeyDown	41324	4	Index	15
311.4616666666667	0	n/a	186878	KeyDown	41324	4	Index	15
312.1133333333333	0	n/a	187269	KeyDown	41324	1	Little	15
312.6933333333333	0	n/a	187617	KeyDown	41324	3	Middle	15
313.1283333333333	0	n/a	187878	KeyDown	41324	2	Ring	15
313.6850000000000	0	n/a	188212	KeyDown	41324	4	Index	15
314.0900000000000	0	n/a	188455	KeyDown	41324	4	Index	15
314.4366666666667	0	n/a	188663	KeyDown	41324	1	Little	15
314.9900000000000	0	n/a	188995	KeyDown	41324	3	Middle	15
315.5533333333333	0	n/a	189333	KeyDown	41324	2	Ring	15
315.9300000000000	0	n/a	189559	KeyDown	41324	4	Index	15
316.2066666666667	0	n/a	189725	KeyDown	41324	4	Index	15
316.5333333333334	0	n/a	189921	KeyDown	41324	1	Little	15
316.5666666666667	0	n/a	189941	StopPractice	41324	n/a	n/a	15
316.5683333333333	0	n/a	189942	StartRest	XXXXX	n/a	n/a	15
326.6000000000000	0	n/a	195961	StopRest	XXXXX	n/a	n/a	15
326.6016666666667	0	UPPT001	195962	StartPractice	41324	n/a	n/a	16
327.2583333333334	0	n/a	196356	KeyDown	41324	4	Index	16
327.6566666666667	0	n/a	196595	KeyDown	41324	1	Little	16
328.3366666666667	0	n/a	197003	KeyDown	41324	3	Middle	16
329.5033333333333	0	n/a	197703	KeyDown	41324	2	Ring	16
329.8750000000000	0	n/a	197926	KeyDown	41324	4	Index	16
330.2933333333334	0	n/a	198177	KeyDown	41324	4	Index	16
330.6783333333333	0	n/a	198408	KeyDown	41324	1	Little	16
331.3383333333334	0	n/a	198804	KeyDown	41324	3	Middle	16
332.0716666666667	0	n/a	199244	KeyDown	41324	2	Ring	16
332.4750000000000	0	n/a	199486	KeyDown	41324	4	Index	16
332.7550000000000	0	n/a	199654	KeyDown	41324	4	Index	16
333.1150000000000	0	n/a	199870	KeyDown	41324	1	Little	16
333.6550000000000	0	n/a	200194	KeyDown	41324	3	Middle	16
334.1133333333333	0	n/a	200469	KeyDown	41324	2	Ring	16
334.7416666666667	0	n/a	200846	KeyDown	41324	4	Index	16
335.1533333333334	0	n/a	201093	KeyDown	41324	4	Index	16
335.5266666666667	0	n/a	201317	KeyDown	41324	1	Little	16
336.1300000000000	0	n/a	201679	KeyDown	41324	3	Middle	16
336.4833333333333	0	n/a	201891	KeyDown	41324	2	Ring	16
336.6400000000000	0	n/a	201985	StopPractice	41324	n/a	n/a	16
336.6416666666667	0	n/a	201986	StartRest	XXXXX	n/a	n/a	16
346.6750000000000	0	n/a	208006	StopRest	XXXXX	n/a	n/a	16
346.6766666666667	0	UPPT001	208007	StartPractice	41324	n/a	n/a	17
347.2183333333334	0	n/a	208332	KeyDown	41324	4	Index	17
347.5900000000000	0	n/a	208555	KeyDown	41324	1	Little	17
348.2400000000000	0	n/a	208945	KeyDown	41324	3	Middle	17
348.6116666666667	0	n/a	209168	KeyDown	41324	2	Ring	17
349.4633333333334	0	n/a	209679	KeyDown	41324	4	Index	17
349.9700000000000	0	n/a	209983	KeyDown	41324	4	Index	17
350.2683333333334	0	n/a	210162	KeyDown	41324	1	Little	17
350.7350000000000	0	n/a	210442	KeyDown	41324	3	Middle	17
351.1283333333333	0	n/a	210678	KeyDown	41324	2	Ring	17
351.5400000000000	0	n/a	210925	KeyDown	41324	4	Index	17
351.8583333333333	0	n/a	211116	KeyDown	41324	4	Index	17
352.2250000000000	0	n/a	211336	KeyDown	41324	1	Little	17
352.6783333333333	0	n/a	211608	KeyDown	41324	3	Middle	17
353.0283333333334	0	n/a	211818	KeyDown	41324	2	Ring	17
353.5150000000000	0	n/a	212110	KeyDown	41324	4	Index	17
353.8650000000000	0	n/a	212320	KeyDown	41324	4	Index	17
354.2050000000000	0	n/a	212524	KeyDown	41324	1	Little	17
354.6533333333334	0	n/a	212793	KeyDown	41324	3	Middle	17
355.1183333333333	0	n/a	213072	KeyDown	41324	2	Ring	17
355.4700000000000	0	n/a	213283	KeyDown	41324	4	Index	17
355.8516666666667	0	n/a	213512	KeyDown	41324	4	Index	17
356.1950000000001	0	n/a	213718	KeyDown	41324	1	Little	17
356.7150000000000	0	n/a	214030	StopPractice	41324	n/a	n/a	17
356.7166666666667	0	n/a	214031	StartRest	XXXXX	n/a	n/a	17
366.7500000000000	0	n/a	220051	StopRest	XXXXX	n/a	n/a	17
366.7516666666667	0	UPPT001	220052	StartPractice	41324	n/a	n/a	18
367.4933333333333	0	n/a	220497	KeyDown	41324	4	Index	18
367.9750000000000	0	n/a	220786	KeyDown	41324	1	Little	18
368.4500000000000	0	n/a	221071	KeyDown	41324	3	Middle	18
368.8333333333334	0	n/a	221301	KeyDown	41324	2	Ring	18
369.3033333333333	0	n/a	221583	KeyDown	41324	4	Index	18
369.7200000000000	0	n/a	221833	KeyDown	41324	4	Index	18
370.2116666666667	0	n/a	222128	KeyDown	41324	1	Little	18
371.1250000000000	0	n/a	222676	KeyDown	41324	3	Middle	18
371.4883333333333	0	n/a	222894	KeyDown	41324	2	Ring	18
371.8600000000000	0	n/a	223117	KeyDown	41324	4	Index	18
372.2383333333333	0	n/a	223344	KeyDown	41324	4	Index	18
372.7100000000000	0	n/a	223627	KeyDown	41324	1	Little	18
373.2516666666667	0	n/a	223952	KeyDown	41324	3	Middle	18
373.6433333333334	0	n/a	224187	KeyDown	41324	2	Ring	18
374.1200000000000	0	n/a	224473	KeyDown	41324	4	Index	18
374.5016666666667	0	n/a	224702	KeyDown	41324	4	Index	18
374.8883333333334	0	n/a	224934	KeyDown	41324	1	Little	18
375.5733333333334	0	n/a	225345	KeyDown	41324	3	Middle	18
375.8633333333333	0	n/a	225519	KeyDown	41324	2	Ring	18
376.2616666666667	0	n/a	225758	KeyDown	41324	4	Index	18
376.5616666666667	0	n/a	225938	KeyDown	41324	4	Index	18
376.7900000000000	0	n/a	226075	StopPractice	41324	n/a	n/a	18
376.7916666666667	0	n/a	226076	StartRest	XXXXX	n/a	n/a	18
386.8250000000000	0	n/a	232096	StopRest	XXXXX	n/a	n/a	18
386.8266666666667	0	UPPT001	232097	StartPractice	41324	n/a	n/a	19
387.2050000000000	0	n/a	232324	KeyDown	41324	4	Index	19
387.6133333333333	0	n/a	232569	KeyDown	41324	1	Little	19
388.2300000000000	0	n/a	232939	KeyDown	41324	3	Middle	19
388.5866666666667	0	n/a	233153	KeyDown	41324	2	Ring	19
388.9783333333334	0	n/a	233388	KeyDown	41324	4	Index	19
389.5050000000001	0	n/a	233704	KeyDown	41324	4	Index	19
389.8600000000000	0	n/a	233917	KeyDown	41324	1	Little	19
390.3083333333333	0	n/a	234186	KeyDown	41324	3	Middle	19
390.6833333333333	0	n/a	234411	KeyDown	41324	2	Ring	19
391.1466666666667	0	n/a	234689	KeyDown	41324	3	Middle	19
392.4133333333334	0	n/a	235449	KeyDown	41324	4	Index	19
393.2300000000000	0	n/a	235939	KeyDown	41324	1	Little	19
394.2350000000000	0	n/a	236542	KeyDown	41324	3	Middle	19
394.6616666666667	0	n/a	236798	KeyDown	41324	2	Ring	19
395.1783333333333	0	n/a	237108	KeyDown	41324	4	Index	19
395.8666666666667	0	n/a	237521	KeyDown	41324	4	Index	19
396.2283333333334	0	n/a	237738	KeyDown	41324	1	Little	19
396.7516666666667	0	n/a	238052	KeyDown	41324	3	Middle	19
396.8650000000000	0	n/a	238120	StopPractice	41324	n/a	n/a	19
396.8666666666667	0	n/a	238121	StartRest	XXXXX	n/a	n/a	19
406.9016666666667	0	n/a	244142	StopRest	XXXXX	n/a	n/a	19
406.9033333333334	0	UPPT001	244143	StartPractice	41324	n/a	n/a	20
407.4350000000000	0	n/a	244462	KeyDown	41324	4	Index	20
407.8200000000001	0	n/a	244693	KeyDown	41324	1	Little	20
408.4350000000000	0	n/a	245062	KeyDown	41324	3	Middle	20
408.8400000000000	0	n/a	245305	KeyDown	41324	2	Ring	20
409.5350000000000	0	n/a	245722	KeyDown	41324	4	Index	20
410.1683333333334	0	n/a	246102	KeyDown	41324	4	Index	20
410.5550000000000	0	n/a	246334	KeyDown	41324	1	Little	20
411.0450000000000	0	n/a	246628	KeyDown	41324	4	Index	20
412.6150000000000	0	n/a	247570	KeyDown	41324	4	Index	20
413.0033333333334	0	n/a	247803	KeyDown	41324	1	Little	20
413.7500000000000	0	n/a	248251	KeyDown	41324	3	Middle	20
414.1150000000000	0	n/a	248470	KeyDown	41324	2	Ring	20
414.4466666666667	0	n/a	248669	KeyDown	41324	4	Index	20
414.8166666666667	0	n/a	248891	KeyDown	41324	4	Index	20
415.1816666666667	0	n/a	249110	KeyDown	41324	1	Little	20
415.6283333333334	0	n/a	249378	KeyDown	41324	3	Middle	20
416.0683333333334	0	n/a	249642	KeyDown	41324	2	Ring	20
416.5066666666667	0	n/a	249905	KeyDown	41324	4	Index	20
416.8866666666667	0	n/a	250133	KeyDown	41324	4	Index	20
416.9416666666667	0	n/a	250166	StopPractice	41324	n/a	n/a	20
416.9433333333334	0	n/a	250167	StartRest	XXXXX	n/a	n/a	20
426.9766666666667	0	n/a	256187	StopRest	XXXXX	n/a	n/a	20
426.9783333333334	0	UPPT001	256188	StartPractice	41324	n/a	n/a	21
427.5416666666667	0	n/a	256526	KeyDown	41324	4	Index	21
428.1316666666667	0	n/a	256880	KeyDown	41324	1	Little	21
428.7716666666667	0	n/a	257264	KeyDown	41324	3	Middle	21
429.1916666666667	0	n/a	257516	KeyDown	41324	2	Ring	21
429.6716666666667	0	n/a	257804	KeyDown	41324	4	Index	21
430.1716666666667	0	n/a	258104	KeyDown	41324	4	Index	21
430.6400000000000	0	n/a	258385	KeyDown	41324	1	Little	21
431.2333333333333	0	n/a	258741	KeyDown	41324	3	Middle	21
431.7200000000000	0	n/a	259033	KeyDown	41324	2	Ring	21
432.3850000000000	0	n/a	259432	KeyDown	41324	4	Index	21
432.9166666666667	0	n/a	259751	KeyDown	41324	4	Index	21
433.3900000000000	0	n/a	260035	KeyDown	41324	1	Little	21
433.9400000000001	0	n/a	260365	KeyDown	41324	3	Middle	21
434.3616666666667	0	n/a	260618	KeyDown	41324	2	Ring	21
434.9400000000001	0	n/a	260965	KeyDown	41324	4	Index	21
435.4200000000000	0	n/a	261253	KeyDown	41324	4	Index	21
435.8533333333334	0	n/a	261513	KeyDown	41324	1	Little	21
436.3883333333334	0	n/a	261834	KeyDown	41324	3	Middle	21
436.8500000000000	0	n/a	262111	KeyDown	41324	2	Ring	21
437.0166666666667	0	n/a	262211	StopPractice	41324	n/a	n/a	21
437.0183333333334	0	n/a	262212	StartRest	XXXXX	n/a	n/a	21
447.0500000000000	0	n/a	268231	StopRest	XXXXX	n/a	n/a	21
447.0516666666667	0	UPPT001	268232	StartPractice	41324	n/a	n/a	22
447.7250000000000	0	n/a	268636	KeyDown	41324	4	Index	22
448.1783333333333	0	n/a	268908	KeyDown	41324	1	Little	22
448.8183333333334	0	n/a	269292	KeyDown	41324	3	Middle	22
449.2200000000000	0	n/a	269533	KeyDown	41324	2	Ring	22
449.7333333333333	0	n/a	269841	KeyDown	41324	4	Index	22
450.3783333333334	0	n/a	270228	KeyDown	41324	4	Index	22
450.7850000000000	0	n/a	270472	KeyDown	41324	1	Little	22
451.5200000000000	0	n/a	270913	KeyDown	41324	3	Middle	22
451.8650000000000	0	n/a	271120	KeyDown	41324	2	Ring	22
452.2150000000000	0	n/a	271330	KeyDown	41324	4	Index	22
452.6316666666667	0	n/a	271580	KeyDown	41324	4	Index	22
453.0300000000000	0	n/a	271819	KeyDown	41324	1	Little	22
453.6116666666667	0	n/a	272168	KeyDown	41324	3	Middle	22
454.0183333333334	0	n/a	272412	KeyDown	41324	2	Ring	22
454.7033333333334	0	n/a	272823	KeyDown	41324	4	Index	22
455.0500000000000	0	n/a	273031	KeyDown	41324	4	Index	22
455.4383333333334	0	n/a	273264	KeyDown	41324	1	Little	22
456.1366666666667	0	n/a	273683	KeyDown	41324	3	Middle	22
456.4666666666667	0	n/a	273881	KeyDown	41324	2	Ring	22
456.8583333333333	0	n/a	274116	KeyDown	41324	4	Index	22
457.0900000000000	0	n/a	274255	StopPractice	41324	n/a	n/a	22
457.0916666666667	0	n/a	274256	StartRest	XXXXX	n/a	n/a	22
467.1250000000001	0	n/a	280276	StopRest	XXXXX	n/a	n/a	22
467.1266666666667	0	UPPT001	280277	StartPractice	41324	n/a	n/a	23
467.8250000000000	0	n/a	280696	KeyDown	41324	4	Index	23
468.3033333333333	0	n/a	280983	KeyDown	41324	1	Little	23
468.8600000000000	0	n/a	281317	KeyDown	41324	3	Middle	23
469.2066666666667	0	n/a	281525	KeyDown	41324	2	Ring	23
469.8866666666667	0	n/a	281933	KeyDown	41324	4	Index	23
470.4116666666667	0	n/a	282248	KeyDown	41324	4	Index	23
470.8766666666667	0	n/a	282527	KeyDown	41324	1	Little	23
471.6183333333333	0	n/a	282972	KeyDown	41324	3	Middle	23
471.9616666666667	0	n/a	283178	KeyDown	41324	2	Ring	23
472.3650000000000	0	n/a	283420	KeyDown	41324	4	Index	23
472.8716666666667	0	n/a	283724	KeyDown	41324	4	Index	23
473.3133333333334	0	n/a	283989	KeyDown	41324	1	Little	23
473.9983333333334	0	n/a	284400	KeyDown	41324	3	Middle	23
474.4350000000000	0	n/a	284662	KeyDown	41324	2	Ring	23
474.7733333333334	0	n/a	284865	KeyDown	41324	4	Index	23
475.1583333333334	0	n/a	285096	KeyDown	41324	4	Index	23
475.4850000000000	0	n/a	285292	KeyDown	41324	1	Little	23
475.9183333333334	0	n/a	285552	KeyDown	41324	3	Middle	23
476.2600000000000	0	n/a	285757	KeyDown	41324	2	Ring	23
476.6766666666667	0	n/a	286007	KeyDown	41324	4	Index	23
477.0766666666667	0	n/a	286247	KeyDown	41324	4	Index	23
477.1650000000000	0	n/a	286300	StopPractice	41324	n/a	n/a	23
477.1666666666667	0	n/a	286301	StartRest	XXXXX	n/a	n/a	23
487.1983333333334	0	n/a	292320	StopRest	XXXXX	n/a	n/a	23
487.2000000000000	0	UPPT001	292321	StartPractice	41324	n/a	n/a	24
487.6733333333333	0	n/a	292605	KeyDown	41324	4	Index	24
488.1216666666667	0	n/a	292874	KeyDown	41324	1	Little	24
488.7016666666667	0	n/a	293222	KeyDown	41324	3	Middle	24
489.0566666666667	0	n/a	293435	KeyDown	41324	2	Ring	24
489.6416666666667	0	n/a	293786	KeyDown	41324	4	Index	24
490.1716666666667	0	n/a	294104	KeyDown	41324	4	Index	24
490.5400000000000	0	n/a	294325	KeyDown	41324	1	Little	24
491.0816666666667	0	n/a	294650	KeyDown	41324	3	Middle	24
491.7366666666667	0	n/a	295043	KeyDown	41324	2	Ring	24
492.2350000000000	0	n/a	295342	KeyDown	41324	4	Index	24
492.6133333333333	0	n/a	295569	KeyDown	41324	4	Index	24
493.0116666666667	0	n/a	295808	KeyDown	41324	1	Little	24
493.5466666666667	0	n/a	296129	KeyDown	41324	3	Middle	24
493.9816666666667	0	n/a	296390	KeyDown	41324	2	Ring	24
494.7333333333333	0	n/a	296841	KeyDown	41324	4	Index	24
495.2400000000000	0	n/a	297145	KeyDown	41324	4	Index	24
495.6316666666667	0	n/a	297380	KeyDown	41324	1	Little	24
496.2400000000000	0	n/a	297745	KeyDown	41324	3	Middle	24
496.5883333333334	0	n/a	297954	KeyDown	41324	2	Ring	24
497.0950000000000	0	n/a	298258	KeyDown	41324	4	Index	24
497.2383333333333	0	n/a	298344	StopPractice	41324	n/a	n/a	24
497.2400000000000	0	n/a	298345	StartRest	XXXXX	n/a	n/a	24
507.2750000000000	0	n/a	304366	StopRest	XXXXX	n/a	n/a	24
507.2766666666667	0	UPPT001	304367	StartPractice	41324	n/a	n/a	25
507.7233333333334	0	n/a	304635	KeyDown	41324	4	Index	25
508.1683333333334	0	n/a	304902	KeyDown	41324	1	Little	25
508.6150000000000	0	n/a	305170	KeyDown	41324	3	Middle	25
508.9966666666667	0	n/a	305399	KeyDown	41324	2	Ring	25
509.5166666666667	0	n/a	305711	KeyDown	41324	4	Index	25
509.9250000000000	0	n/a	305956	KeyDown	41324	4	Index	25
510.3433333333334	0	n/a	306207	KeyDown	41324	1	Little	25
510.8183333333334	0	n/a	306492	KeyDown	41324	3	Middle	25
511.1750000000000	0	n/a	306706	KeyDown	41324	2	Ring	25
512.1683333333334	0	n/a	307302	KeyDown	41324	4	Index	25
512.4850000000000	0	n/a	307492	KeyDown	41324	4	Index	25
512.8200000000001	0	n/a	307693	KeyDown	41324	1	Little	25
513.4583333333334	0	n/a	308076	KeyDown	41324	3	Middle	25
513.8633333333333	0	n/a	308319	KeyDown	41324	2	Ring	25
514.2316666666667	0	n/a	308540	KeyDown	41324	4	Index	25
514.5116666666667	0	n/a	308708	KeyDown	41324	4	Index	25
514.8566666666667	0	n/a	308915	KeyDown	41324	1	Little	25
515.2683333333333	0	n/a	309162	KeyDown	41324	3	Middle	25
515.5783333333334	0	n/a	309348	KeyDown	41324	2	Ring	25
515.9100000000001	0	n/a	309547	KeyDown	41324	4	Index	25
516.3766666666667	0	n/a	309827	KeyDown	41324	4	Index	25
516.7766666666668	0	n/a	310067	KeyDown	41324	1	Little	25
517.3150000000001	0	n/a	310390	StopPractice	41324	n/a	n/a	25
517.3166666666667	0	n/a	310391	StartRest	XXXXX	n/a	n/a	25
527.3483333333334	0	n/a	316410	StopRest	XXXXX	n/a	n/a	25
527.3500000000000	0	UPPT001	316411	StartPractice	41324	n/a	n/a	26
527.7916666666667	0	n/a	316676	KeyDown	41324	4	Index	26
528.2066666666667	0	n/a	316925	KeyDown	41324	1	Little	26
528.7216666666667	0	n/a	317234	KeyDown	41324	3	Middle	26
529.0833333333334	0	n/a	317451	KeyDown	41324	2	Ring	26
529.5116666666667	0	n/a	317708	KeyDown	41324	4	Index	26
530.0400000000001	0	n/a	318025	KeyDown	41324	4	Index	26
530.4166666666667	0	n/a	318251	KeyDown	41324	1	Little	26
530.9100000000001	0	n/a	318547	KeyDown	41324	3	Middle	26
531.3316666666667	0	n/a	318800	KeyDown	41324	2	Ring	26
531.7283333333334	0	n/a	319038	KeyDown	41324	4	Index	26
532.0850000000000	0	n/a	319252	KeyDown	41324	4	Index	26
532.6016666666667	0	n/a	319562	KeyDown	41324	1	Little	26
533.1833333333334	0	n/a	319911	KeyDown	41324	3	Middle	26
533.5716666666667	0	n/a	320144	KeyDown	41324	2	Ring	26
534.0466666666667	0	n/a	320429	KeyDown	41324	4	Index	26
534.4433333333334	0	n/a	320667	KeyDown	41324	4	Index	26
534.8150000000001	0	n/a	320890	KeyDown	41324	1	Little	26
535.2766666666668	0	n/a	321167	KeyDown	41324	3	Middle	26
535.5683333333334	0	n/a	321342	KeyDown	41324	2	Ring	26
536.0000000000000	0	n/a	321601	KeyDown	41324	4	Index	26
536.3250000000000	0	n/a	321796	KeyDown	41324	4	Index	26
536.7183333333334	0	n/a	322032	KeyDown	41324	1	Little	26
537.1116666666667	0	n/a	322268	KeyDown	41324	3	Middle	26
537.3883333333333	0	n/a	322434	StopPractice	41324	n/a	n/a	26
537.3900000000000	0	n/a	322435	StartRest	XXXXX	n/a	n/a	26
547.4233333333334	0	n/a	328455	StopRest	XXXXX	n/a	n/a	26
547.4250000000001	0	UPPT001	328456	StartPractice	41324	n/a	n/a	27
547.8133333333334	0	n/a	328689	KeyDown	41324	4	Index	27
548.3100000000001	0	n/a	328987	KeyDown	41324	1	Little	27
548.8433333333334	0	n/a	329307	KeyDown	41324	3	Middle	27
549.1800000000001	0	n/a	329509	KeyDown	41324	2	Ring	27
549.6050000000000	0	n/a	329764	KeyDown	41324	4	Index	27
549.9400000000001	0	n/a	329965	KeyDown	41324	4	Index	27
550.3016666666667	0	n/a	330182	KeyDown	41324	1	Little	27
550.7433333333333	0	n/a	330447	KeyDown	41324	3	Middle	27
551.1083333333333	0	n/a	330666	KeyDown	41324	2	Ring	27
551.5233333333333	0	n/a	330915	KeyDown	41324	4	Index	27
551.9350000000001	0	n/a	331162	KeyDown	41324	4	Index	27
552.3433333333334	0	n/a	331407	KeyDown	41324	1	Little	27
552.8283333333334	0	n/a	331698	KeyDown	41324	3	Middle	27
553.2166666666667	0	n/a	331931	KeyDown	41324	2	Ring	27
553.5883333333334	0	n/a	332154	KeyDown	41324	4	Index	27
553.9516666666667	0	n/a	332372	KeyDown	41324	4	Index	27
554.3033333333334	0	n/a	332583	KeyDown	41324	1	Little	27
554.6833333333334	0	n/a	332811	KeyDown	41324	3	Middle	27
555.0283333333334	0	n/a	333018	KeyDown	41324	2	Ring	27
555.5716666666667	0	n/a	333344	KeyDown	41324	4	Index	27
556.0766666666667	0	n/a	333647	KeyDown	41324	4	Index	27
556.4133333333334	0	n/a	333849	KeyDown	41324	1	Little	27
556.9800000000000	0	n/a	334189	KeyDown	41324	3	Middle	27
557.4633333333334	0	n/a	334479	StopPractice	41324	n/a	n/a	27
557.4650000000000	0	n/a	334480	StartRest	XXXXX	n/a	n/a	27
567.4983333333333	0	n/a	340500	StopRest	XXXXX	n/a	n/a	27
567.5000000000000	0	UPPT001	340501	StartPractice	41324	n/a	n/a	28
568.3916666666667	0	n/a	341036	KeyDown	41324	4	Index	28
568.9833333333333	0	n/a	341391	KeyDown	41324	1	Little	28
569.4733333333334	0	n/a	341685	KeyDown	41324	3	Middle	28
569.8116666666667	0	n/a	341888	KeyDown	41324	2	Ring	28
570.3316666666667	0	n/a	342200	KeyDown	41324	3	Middle	28
571.4583333333334	0	n/a	342876	KeyDown	41324	4	Index	28
572.1716666666667	0	n/a	343304	KeyDown	41324	1	Little	28
572.7400000000000	0	n/a	343645	KeyDown	41324	3	Middle	28
573.7416666666667	0	n/a	344246	KeyDown	41324	2	Ring	28
574.2916666666667	0	n/a	344576	KeyDown	41324	4	Index	28
574.5733333333334	0	n/a	344745	KeyDown	41324	4	Index	28
574.9250000000001	0	n/a	344956	KeyDown	41324	1	Little	28
575.5666666666667	0	n/a	345341	KeyDown	41324	3	Middle	28
575.9666666666667	0	n/a	345581	KeyDown	41324	2	Ring	28
576.3666666666667	0	n/a	345821	KeyDown	41324	4	Index	28
576.7516666666667	0	n/a	346052	KeyDown	41324	4	Index	28
577.1466666666666	0	n/a	346289	KeyDown	41324	1	Little	28
577.5383333333334	0	n/a	346524	StopPractice	41324	n/a	n/a	28
577.5400000000001	0	n/a	346525	StartRest	XXXXX	n/a	n/a	28
587.5733333333334	0	n/a	352545	StopRest	XXXXX	n/a	n/a	28
587.5750000000000	0	UPPT001	352546	StartPractice	41324	n/a	n/a	29
588.4350000000001	0	n/a	353062	KeyDown	41324	4	Index	29
588.8116666666667	0	n/a	353288	KeyDown	41324	1	Little	29
589.5233333333334	0	n/a	353715	KeyDown	41324	3	Middle	29
590.2933333333334	0	n/a	354177	KeyDown	41324	2	Ring	29
590.8116666666667	0	n/a	354488	KeyDown	41324	4	Index	29
591.1166666666667	0	n/a	354671	KeyDown	41324	4	Index	29
591.5166666666667	0	n/a	354911	KeyDown	41324	1	Little	29
592.7033333333334	0	n/a	355623	KeyDown	41324	3	Middle	29
593.0850000000000	0	n/a	355852	KeyDown	41324	2	Ring	29
593.4433333333334	0	n/a	356067	KeyDown	41324	4	Index	29
593.7583333333333	0	n/a	356256	KeyDown	41324	4	Index	29
594.0866666666667	0	n/a	356453	KeyDown	41324	1	Little	29
594.5833333333334	0	n/a	356751	KeyDown	41324	3	Middle	29
595.0266666666668	0	n/a	357017	KeyDown	41324	2	Ring	29
595.4566666666667	0	n/a	357275	KeyDown	41324	4	Index	29
595.8550000000000	0	n/a	357514	KeyDown	41324	4	Index	29
596.2216666666667	0	n/a	357734	KeyDown	41324	1	Little	29
596.6816666666667	0	n/a	358010	KeyDown	41324	3	Middle	29
597.0066666666667	0	n/a	358205	KeyDown	41324	2	Ring	29
597.4616666666667	0	n/a	358478	KeyDown	41324	4	Index	29
597.6133333333333	0	n/a	358569	StopPractice	41324	n/a	n/a	29
597.6150000000000	0	n/a	358570	StartRest	XXXXX	n/a	n/a	29
607.6483333333334	0	n/a	364590	StopRest	XXXXX	n/a	n/a	29
607.6500000000001	0	UPPT001	364591	StartPractice	41324	n/a	n/a	30
608.5516666666667	0	n/a	365132	KeyDown	41324	4	Index	30
608.9850000000000	0	n/a	365392	KeyDown	41324	1	Little	30
609.7666666666667	0	n/a	365861	KeyDown	41324	3	Middle	30
610.1400000000000	0	n/a	366085	KeyDown	41324	2	Ring	30
610.7333333333333	0	n/a	366441	KeyDown	41324	4	Index	30
611.1283333333333	0	n/a	366678	KeyDown	41324	4	Index	30
611.5466666666667	0	n/a	366929	KeyDown	41324	1	Little	30
612.1216666666667	0	n/a	367274	KeyDown	41324	3	Middle	30
612.5400000000001	0	n/a	367525	KeyDown	41324	2	Ring	30
613.2233333333334	0	n/a	367935	KeyDown	41324	4	Index	30
613.7133333333334	0	n/a	368229	KeyDown	41324	4	Index	30
614.2566666666667	0	n/a	368555	KeyDown	41324	1	Little	30
614.9600000000000	0	n/a	368977	KeyDown	41324	3	Middle	30
615.3850000000000	0	n/a	369232	KeyDown	41324	2	Ring	30
615.8650000000000	0	n/a	369520	KeyDown	41324	4	Index	30
616.1533333333334	0	n/a	369693	KeyDown	41324	4	Index	30
616.4850000000000	0	n/a	369892	KeyDown	41324	1	Little	30
617.0800000000000	0	n/a	370249	KeyDown	41324	3	Middle	30
617.3983333333334	0	n/a	370440	KeyDown	41324	2	Ring	30
617.6883333333334	0	n/a	370614	StopPractice	41324	n/a	n/a	30
617.6900000000001	0	n/a	370615	StartRest	XXXXX	n/a	n/a	30
627.7233333333334	0	n/a	376635	StopRest	XXXXX	n/a	n/a	30
627.7250000000000	0	UPPT001	376636	StartPractice	41324	n/a	n/a	31
628.3016666666667	0	n/a	376982	KeyDown	41324	4	Index	31
628.6933333333334	0	n/a	377217	KeyDown	41324	1	Little	31
629.3933333333334	0	n/a	377637	KeyDown	41324	3	Middle	31
629.7350000000000	0	n/a	377842	KeyDown	41324	2	Ring	31
630.1416666666667	0	n/a	378086	KeyDown	41324	4	Index	31
630.5216666666668	0	n/a	378314	KeyDown	41324	4	Index	31
630.9850000000000	0	n/a	378592	KeyDown	41324	1	Little	31
631.4733333333334	0	n/a	378885	KeyDown	41324	3	Middle	31
631.8416666666667	0	n/a	379106	KeyDown	41324	2	Ring	31
632.4700000000000	0	n/a	379483	KeyDown	41324	4	Index	31
632.7666666666667	0	n/a	379661	KeyDown	41324	4	Index	31
633.2866666666667	0	n/a	379973	KeyDown	41324	1	Little	31
634.1033333333334	0	n/a	380463	KeyDown	41324	3	Middle	31
634.5016666666667	0	n/a	380702	KeyDown	41324	2	Ring	31
634.8966666666668	0	n/a	380939	KeyDown	41324	4	Index	31
635.2533333333333	0	n/a	381153	KeyDown	41324	4	Index	31
635.5716666666667	0	n/a	381344	KeyDown	41324	1	Little	31
636.0766666666667	0	n/a	381647	KeyDown	41324	3	Middle	31
636.3666666666667	0	n/a	381821	KeyDown	41324	2	Ring	31
636.6933333333334	0	n/a	382017	KeyDown	41324	4	Index	31
637.1183333333333	0	n/a	382272	KeyDown	41324	4	Index	31
637.4466666666667	0	n/a	382469	KeyDown	41324	1	Little	31
637.7633333333333	0	n/a	382659	StopPractice	41324	n/a	n/a	31
637.7650000000000	0	n/a	382660	StartRest	XXXXX	n/a	n/a	31
647.7983333333334	0	n/a	388680	StopRest	XXXXX	n/a	n/a	31
647.8000000000001	0	UPPT001	388681	StartPractice	41324	n/a	n/a	32
648.3766666666667	0	n/a	389027	KeyDown	41324	4	Index	32
648.7766666666668	0	n/a	389267	KeyDown	41324	1	Little	32
649.2883333333334	0	n/a	389574	KeyDown	41324	3	Middle	32
649.6433333333334	0	n/a	389787	KeyDown	41324	2	Ring	32
650.4466666666667	0	n/a	390269	KeyDown	41324	4	Index	32
650.9066666666668	0	n/a	390545	KeyDown	41324	4	Index	32
651.2783333333334	0	n/a	390768	KeyDown	41324	1	Little	32
651.9266666666667	0	n/a	391157	KeyDown	41324	3	Middle	32
652.3700000000000	0	n/a	391423	KeyDown	41324	2	Ring	32
652.8633333333333	0	n/a	391719	KeyDown	41324	4	Index	32
653.2366666666667	0	n/a	391943	KeyDown	41324	4	Index	32
653.6333333333333	0	n/a	392181	KeyDown	41324	1	Little	32
654.2916666666667	0	n/a	392576	KeyDown	41324	3	Middle	32
654.6983333333334	0	n/a	392820	KeyDown	41324	2	Ring	32
655.1233333333333	0	n/a	393075	KeyDown	41324	4	Index	32
655.4816666666667	0	n/a	393290	KeyDown	41324	4	Index	32
655.8266666666667	0	n/a	393497	KeyDown	41324	1	Little	32
656.5383333333334	0	n/a	393924	KeyDown	41324	3	Middle	32
656.8733333333333	0	n/a	394125	KeyDown	41324	2	Ring	32
657.6733333333334	0	n/a	394605	KeyDown	41324	4	Index	32
657.8383333333334	0	n/a	394704	StopPractice	41324	n/a	n/a	32
657.8400000000000	0	n/a	394705	StartRest	XXXXX	n/a	n/a	32
667.8733333333333	0	n/a	400725	StopRest	XXXXX	n/a	n/a	32
667.8750000000000	0	UPPT001	400726	StartPractice	41324	n/a	n/a	33
668.4616666666667	0	n/a	401078	KeyDown	41324	4	Index	33
668.9133333333334	0	n/a	401349	KeyDown	41324	1	Little	33
669.6316666666667	0	n/a	401780	KeyDown	41324	3	Middle	33
669.9950000000000	0	n/a	401998	KeyDown	41324	2	Ring	33
670.4666666666667	0	n/a	402281	KeyDown	41324	4	Index	33
670.8616666666667	0	n/a	402518	KeyDown	41324	4	Index	33
671.2916666666667	0	n/a	402776	KeyDown	41324	1	Little	33
671.9733333333334	0	n/a	403185	KeyDown	41324	3	Middle	33
672.4416666666667	0	n/a	403466	KeyDown	41324	2	Ring	33
672.8866666666667	0	n/a	403733	KeyDown	41324	4	Index	33
673.2150000000000	0	n/a	403930	KeyDown	41324	4	Index	33
673.6150000000000	0	n/a	404170	KeyDown	41324	1	Little	33
674.1166666666667	0	n/a	404471	KeyDown	41324	3	Middle	33
674.4983333333333	0	n/a	404700	KeyDown	41324	2	Ring	33
674.8100000000001	0	n/a	404887	KeyDown	41324	4	Index	33
675.1416666666668	0	n/a	405086	KeyDown	41324	4	Index	33
675.6283333333333	0	n/a	405378	KeyDown	41324	1	Little	33
676.3916666666668	0	n/a	405836	KeyDown	41324	3	Middle	33
676.7283333333334	0	n/a	406038	KeyDown	41324	2	Ring	33
677.1283333333333	0	n/a	406278	KeyDown	41324	4	Index	33
677.5216666666668	0	n/a	406514	KeyDown	41324	4	Index	33
677.9133333333334	0	n/a	406749	StopPractice	41324	n/a	n/a	33
677.9150000000001	0	n/a	406750	StartRest	XXXXX	n/a	n/a	33
687.9466666666667	0	n/a	412769	StopRest	XXXXX	n/a	n/a	33
687.9483333333334	0	UPPT001	412770	StartPractice	41324	n/a	n/a	34
688.5500000000001	0	n/a	413131	KeyDown	41324	4	Index	34
688.9400000000001	0	n/a	413365	KeyDown	41324	1	Little	34
689.4766666666667	0	n/a	413687	KeyDown	41324	3	Middle	34
689.8216666666667	0	n/a	413894	KeyDown	41324	2	Ring	34
690.2766666666668	0	n/a	414167	KeyDown	41324	4	Index	34
690.6750000000001	0	n/a	414406	KeyDown	41324	4	Index	34
691.1383333333333	0	n/a	414684	KeyDown	41324	1	Little	34
691.9000000000001	0	n/a	415141	KeyDown	41324	3	Middle	34
692.2283333333334	0	n/a	415338	KeyDown	41324	2	Ring	34
692.5833333333334	0	n/a	415551	KeyDown	41324	4	Index	34
692.8750000000000	0	n/a	415726	KeyDown	41324	4	Index	34
693.2733333333334	0	n/a	415965	KeyDown	41324	1	Little	34
693.8350000000000	0	n/a	416302	KeyDown	41324	3	Middle	34
694.1750000000001	0	n/a	416506	KeyDown	41324	2	Ring	34
694.8383333333334	0	n/a	416904	KeyDown	41324	4	Index	34
695.2216666666667	0	n/a	417134	KeyDown	41324	4	Index	34
695.5600000000001	0	n/a	417337	KeyDown	41324	1	Little	34
696.1016666666667	0	n/a	417662	KeyDown	41324	3	Middle	34
696.5950000000000	0	n/a	417958	KeyDown	41324	2	Ring	34
696.9233333333334	0	n/a	418155	KeyDown	41324	4	Index	34
697.1400000000001	0	n/a	418285	KeyDown	41324	4	Index	34
697.4200000000001	0	n/a	418453	KeyDown	41324	1	Little	34
697.9866666666667	0	n/a	418793	StopPractice	41324	n/a	n/a	34
697.9883333333333	0	n/a	418794	StartRest	XXXXX	n/a	n/a	34
708.0233333333334	0	n/a	424815	StopRest	XXXXX	n/a	n/a	34
708.0250000000001	0	UPPT001	424816	StartPractice	41324	n/a	n/a	35
708.6283333333333	0	n/a	425178	KeyDown	41324	4	Index	35
708.9933333333333	0	n/a	425397	KeyDown	41324	1	Little	35
709.7083333333334	0	n/a	425826	KeyDown	41324	3	Middle	35
710.1016666666667	0	n/a	426062	KeyDown	41324	2	Ring	35
710.7633333333334	0	n/a	426459	KeyDown	41324	4	Index	35
711.1883333333334	0	n/a	426714	KeyDown	41324	4	Index	35
711.5433333333334	0	n/a	426927	KeyDown	41324	1	Little	35
712.2033333333334	0	n/a	427323	KeyDown	41324	3	Middle	35
712.7150000000000	0	n/a	427630	KeyDown	41324	2	Ring	35
713.2583333333333	0	n/a	427956	KeyDown	41324	3	Middle	35
714.6200000000000	0	n/a	428773	KeyDown	41324	4	Index	35
714.9783333333334	0	n/a	428988	KeyDown	41324	1	Little	35
716.0050000000000	0	n/a	429604	KeyDown	41324	3	Middle	35
716.5716666666667	0	n/a	429944	KeyDown	41324	2	Ring	35
716.9383333333334	0	n/a	430164	KeyDown	41324	4	Index	35
717.3216666666667	0	n/a	430394	KeyDown	41324	4	Index	35
717.6633333333334	0	n/a	430599	KeyDown	41324	1	Little	35
718.0633333333334	0	n/a	430839	StopPractice	41324	n/a	n/a	35
718.0650000000001	0	n/a	430840	StartRest	XXXXX	n/a	n/a	35
728.0966666666667	0	n/a	436859	StopRest	XXXXX	n/a	n/a	35
728.0983333333334	0	UPPT001	436860	StartPractice	41324	n/a	n/a	36
728.7033333333334	0	n/a	437223	KeyDown	41324	4	Index	36
729.3100000000001	0	n/a	437587	KeyDown	41324	1	Little	36
730.0416666666667	0	n/a	438026	KeyDown	41324	3	Middle	36
730.5066666666667	0	n/a	438305	KeyDown	41324	2	Ring	36
731.0750000000000	0	n/a	438646	KeyDown	41324	4	Index	36
731.5683333333334	0	n/a	438942	KeyDown	41324	4	Index	36
732.1116666666667	0	n/a	439268	KeyDown	41324	1	Little	36
732.7716666666668	0	n/a	439664	KeyDown	41324	3	Middle	36
733.2016666666667	0	n/a	439922	KeyDown	41324	2	Ring	36
733.6616666666667	0	n/a	440198	KeyDown	41324	4	Index	36
734.1583333333334	0	n/a	440496	KeyDown	41324	4	Index	36
734.7016666666667	0	n/a	440822	KeyDown	41324	1	Little	36
735.3283333333334	0	n/a	441198	KeyDown	41324	3	Middle	36
735.7700000000001	0	n/a	441463	KeyDown	41324	2	Ring	36
736.5816666666667	0	n/a	441950	KeyDown	41324	4	Index	36
736.8883333333334	0	n/a	442134	KeyDown	41324	4	Index	36
737.2000000000000	0	n/a	442321	KeyDown	41324	1	Little	36
738.0550000000001	0	n/a	442834	KeyDown	41324	3	Middle	36
738.1366666666668	0	n/a	442883	StopPractice	41324	n/a	n/a	36
738.1383333333334	0	n/a	442884	StartRest	XXXXX	n/a	n/a	36
748.1733333333334	0	n/a	448905	StopRest	XXXXX	n/a	n/a	36
