onset	duration	channel	onset_sample_idx	event_type	target_sequence	keypress_id	finger_label	trial_number
7.3916666666667	0	UPPT001	4436	StartPractice	41324	n/a	n/a	1
10.8533333333333	0	n/a	6513	KeyDown	41324	4	Index	1
11.8250000000000	0	n/a	7096	KeyDown	41324	1	Little	1
14.6250000000000	0	n/a	8776	KeyDown	41324	4	Index	1
15.2366666666667	0	n/a	9143	KeyDown	41324	1	Little	1
16.1250000000000	0	n/a	9676	KeyDown	41324	4	Index	1
17.4300000000000	0	n/a	10459	StopPractice	41324	n/a	n/a	1
17.4316666666667	0	n/a	10460	StartRest	XXXXX	n/a	n/a	1
27.4583333333333	0	n/a	16476	StopRest	XXXXX	n/a	n/a	1
27.4600000000000	0	UPPT001	16477	StartPractice	41324	n/a	n/a	2
28.3816666666667	0	n/a	17030	KeyDown	41324	4	Index	2
28.9583333333333	0	n/a	17376	KeyDown	41324	1	Little	2
30.4133333333333	0	n/a	18249	KeyDown	41324	3	Middle	2
31.1883333333333	0	n/a	18714	KeyDown	41324	2	Ring	2
31.6716666666667	0	n/a	19004	KeyDown	41324	4	Index	2
32.7933333333333	0	n/a	19677	KeyDown	41324	4	Index	2
33.3266666666667	0	n/a	19997	KeyDown	41324	1	Little	2
34.5266666666667	0	n/a	20717	KeyDown	41324	3	Middle	2
35.0033333333333	0	n/a	21003	KeyDown	41324	2	Ring	2
35.5383333333333	0	n/a	21324	KeyDown	41324	4	Index	2
36.6383333333333	0	n/a	21984	KeyDown	41324	4	Index	2
37.1133333333333	0	n/a	22269	KeyDown	41324	1	Little	2
37.4983333333333	0	n/a	22500	StopPractice	41324	n/a	n/a	2
37.5000000000000	0	n/a	22501	StartRest	XXXXX	n/a	n/a	2
47.5333333333333	0	n/a	28521	StopRest	XXXXX	n/a	n/a	2
47.5350000000000	0	UPPT001	28522	StartPractice	41324	n/a	n/a	3
48.1466666666667	0	n/a	28889	KeyDown	41324	4	Index	3
48.7016666666667	0	n/a	29222	KeyDown	41324	1	Little	3
49.2033333333333	0	n/a	29523	KeyDown	41324	3	Middle	3
49.8466666666667	0	n/a	29909	KeyDown	41324	2	Ring	3
50.7133333333333	0	n/a	30429	KeyDown	41324	4	Index	3
51.7766666666667	0	n/a	31067	KeyDown	41324	4	Index	3
52.8016666666667	0	n/a	31682	KeyDown	41324	1	Little	3
53.7966666666667	0	n/a	32279	KeyDown	41324	3	Middle	3
54.3933333333333	0	n/a	32637	KeyDown	41324	2	Ring	3
55.1933333333333	0	n/a	33117	KeyDown	41324	4	Index	3
56.5233333333333	0	n/a	33915	KeyDown	41324	4	Index	3
57.0583333333333	0	n/a	34236	KeyDown	41324	1	Little	3
57.5733333333333	0	n/a	34545	StopPractice	41324	n/a	n/a	3
57.5750000000000	0	n/a	34546	StartRest	XXXXX	n/a	n/a	3
67.6083333333333	0	n/a	40566	StopRest	XXXXX	n/a	n/a	3
67.6100000000000	0	UPPT001	40567	StartPractice	41324	n/a	n/a	4
68.3216666666667	0	n/a	40994	KeyDown	41324	4	Index	4
68.8766666666667	0	n/a	41327	KeyDown	41324	1	Little	4
69.3766666666667	0	n/a	41627	KeyDown	41324	3	Middle	4
69.7883333333333	0	n/a	41874	KeyDown	41324	2	Ring	4
70.1783333333333	0	n/a	42108	KeyDown	41324	4	Index	4
70.6716666666667	0	n/a	42404	KeyDown	41324	4	Index	4
71.2233333333333	0	n/a	42735	KeyDown	41324	1	Little	4
72.3216666666667	0	n/a	43394	KeyDown	41324	3	Middle	4
72.8516666666667	0	n/a	43712	KeyDown	41324	2	Ring	4
73.3483333333333	0	n/a	44010	KeyDown	41324	4	Index	4
74.2183333333333	0	n/a	44532	KeyDown	41324	4	Index	4
74.8716666666667	0	n/a	44924	KeyDown	41324	1	Little	4
75.5083333333333	0	n/a	45306	KeyDown	41324	3	Middle	4
76.0350000000000	0	n/a	45622	KeyDown	41324	2	Ring	4
76.4616666666667	0	n/a	45878	KeyDown	41324	4	Index	4
77.6483333333333	0	n/a	46590	StopPractice	41324	n/a	n/a	4
77.6500000000000	0	n/a	46591	StartRest	XXXXX	n/a	n/a	4
87.6833333333333	0	n/a	52611	StopRest	XXXXX	n/a	n/a	4
87.6850000000000	0	UPPT001	52612	StartPractice	41324	n/a	n/a	5
88.2433333333333	0	n/a	52947	KeyDown	41324	4	Index	5
88.7733333333333	0	n/a	53265	KeyDown	41324	1	Little	5
89.2950000000000	0	n/a	53578	KeyDown	41324	3	Middle	5
89.6433333333333	0	n/a	53787	KeyDown	41324	2	Ring	5
90.0233333333333	0	n/a	54015	KeyDown	41324	4	Index	5
90.5350000000000	0	n/a	54322	KeyDown	41324	4	Index	5
91.0016666666667	0	n/a	54602	KeyDown	41324	1	Little	5
91.4883333333333	0	n/a	54894	KeyDown	41324	3	Middle	5
91.8733333333333	0	n/a	55125	KeyDown	41324	2	Ring	5
92.9166666666667	0	n/a	55751	KeyDown	41324	4	Index	5
93.6683333333333	0	n/a	56202	KeyDown	41324	4	Index	5
94.2300000000000	0	n/a	56539	KeyDown	41324	1	Little	5
94.8333333333333	0	n/a	56901	KeyDown	41324	3	Middle	5
95.2850000000000	0	n/a	57172	KeyDown	41324	2	Ring	5
95.7283333333333	0	n/a	57438	KeyDown	41324	4	Index	5
96.4200000000000	0	n/a	57853	KeyDown	41324	4	Index	5
97.0583333333333	0	n/a	58236	KeyDown	41324	1	Little	5
97.6033333333333	0	n/a	58563	KeyDown	41324	3	Middle	5
97.7233333333333	0	n/a	58635	StopPractice	41324	n/a	n/a	5
97.7250000000000	0	n/a	58636	StartRest	XXXXX	n/a	n/a	5
107.7583333333333	0	n/a	64656	StopRest	XXXXX	n/a	n/a	5
107.7600000000000	0	UPPT001	64657	StartPractice	41324	n/a	n/a	6
108.2583333333333	0	n/a	64956	KeyDown	41324	4	Index	6
108.7366666666667	0	n/a	65243	KeyDown	41324	1	Little	6
109.1450000000000	0	n/a	65488	KeyDown	41324	3	Middle	6
109.4850000000000	0	n/a	65692	KeyDown	41324	2	Ring	6
109.7816666666667	0	n/a	65870	KeyDown	41324	4	Index	6
110.5333333333333	0	n/a	66321	KeyDown	41324	4	Index	6
111.0700000000000	0	n/a	66643	KeyDown	41324	1	Little	6
111.5733333333333	0	n/a	66945	KeyDown	41324	3	Middle	6
111.9216666666667	0	n/a	67154	KeyDown	41324	2	Ring	6
112.2883333333333	0	n/a	67374	KeyDown	41324	4	Index	6
113.2066666666667	0	n/a	67925	KeyDown	41324	4	Index	6
113.9733333333333	0	n/a	68385	KeyDown	41324	1	Little	6
114.7466666666667	0	n/a	68849	KeyDown	41324	3	Middle	6
115.1950000000000	0	n/a	69118	KeyDown	41324	2	Ring	6
115.5416666666667	0	n/a	69326	KeyDown	41324	4	Index	6
116.4383333333333	0	n/a	69864	KeyDown	41324	4	Index	6
116.9666666666667	0	n/a	70181	KeyDown	41324	1	Little	6
117.4133333333333	0	n/a	70449	KeyDown	41324	3	Middle	6
117.7566666666667	0	n/a	70655	KeyDown	41324	2	Ring	6
117.7983333333333	0	n/a	70680	StopPractice	41324	n/a	n/a	6
117.8000000000000	0	n/a	70681	StartRest	XXXXX	n/a	n/a	6
127.8333333333333	0	n/a	76701	StopRest	XXXXX	n/a	n/a	6
127.8350000000000	0	UPPT001	76702	StartPractice	41324	n/a	n/a	7
128.4466666666667	0	n/a	77069	KeyDown	41324	4	Index	7
128.9583333333333	0	n/a	77376	KeyDown	41324	1	Little	7
129.3233333333334	0	n/a	77595	KeyDown	41324	3	Middle	7
129.6833333333333	0	n/a	77811	KeyDown	41324	2	Ring	7
130.3266666666667	0	n/a	78197	KeyDown	41324	4	Index	7
130.8700000000000	0	n/a	78523	KeyDown	41324	4	Index	7
131.4183333333334	0	n/a	78852	KeyDown	41324	1	Little	7
131.9166666666667	0	n/a	79151	KeyDown	41324	3	Middle	7
132.2083333333333	0	n/a	79326	KeyDown	41324	2	Ring	7
132.5066666666667	0	n/a	79505	KeyDown	41324	4	Index	7
133.0616666666667	0	n/a	79838	KeyDown	41324	4	Index	7
133.7283333333334	0	n/a	80238	KeyDown	41324	1	Little	7
134.2866666666667	0	n/a	80573	KeyDown	41324	3	Middle	7
134.6650000000000	0	n/a	80800	KeyDown	41324	2	Ring	7
134.9483333333334	0	n/a	80970	KeyDown	41324	4	Index	7
135.6200000000000	0	n/a	81373	KeyDown	41324	4	Index	7
136.3966666666667	0	n/a	81839	KeyDown	41324	1	Little	7
136.8783333333333	0	n/a	82128	KeyDown	41324	3	Middle	7
137.4883333333333	0	n/a	82494	KeyDown	41324	2	Ring	7
137.8733333333333	0	n/a	82725	StopPractice	41324	n/a	n/a	7
137.8750000000000	0	n/a	82726	StartRest	XXXXX	n/a	n/a	7
147.9083333333333	0	n/a	88746	StopRest	XXXXX	n/a	n/a	7
147.9100000000000	0	UPPT001	88747	StartPractice	41324	n/a	n/a	8
148.5683333333334	0	n/a	89142	KeyDown	41324	4	Index	8
149.0733333333334	0	n/a	89445	KeyDown	41324	1	Little	8
149.4800000000000	0	n/a	89689	KeyDown	41324	3	Middle	8
149.7766666666667	0	n/a	89867	KeyDown	41324	2	Ring	8
150.0233333333333	0	n/a	90015	KeyDown	41324	4	Index	8
150.7133333333333	0	n/a	90429	KeyDown	41324	4	Index	8
151.1933333333334	0	n/a	90717	KeyDown	41324	1	Little	8
151.6000000000000	0	n/a	90961	KeyDown	41324	3	Middle	8
151.8716666666667	0	n/a	91124	KeyDown	41324	2	Ring	8
152.1350000000000	0	n/a	91282	KeyDown	41324	4	Index	8
152.9083333333333	0	n/a	91746	KeyDown	41324	4	Index	8
153.3783333333333	0	n/a	92028	KeyDown	41324	1	Little	8
153.7633333333333	0	n/a	92259	KeyDown	41324	3	Middle	8
153.9933333333333	0	n/a	92397	KeyDown	41324	2	Ring	8
154.2666666666667	0	n/a	92561	KeyDown	41324	4	Index	8
154.7916666666667	0	n/a	92876	KeyDown	41324	4	Index	8
155.2066666666667	0	n/a	93125	KeyDown	41324	1	Little	8
155.6333333333334	0	n/a	93381	KeyDown	41324	3	Middle	8
155.8833333333334	0	n/a	93531	KeyDown	41324	2	Ring	8
156.1433333333333	0	n/a	93687	KeyDown	41324	4	Index	8
156.6716666666667	0	n/a	94004	KeyDown	41324	4	Index	8
157.0966666666667	0	n/a	94259	KeyDown	41324	1	Little	8
157.5183333333333	0	n/a	94512	KeyDown	41324	3	Middle	8
157.7350000000000	0	n/a	94642	KeyDown	41324	2	Ring	8
157.9483333333334	0	n/a	94770	StopPractice	41324	n/a	n/a	8
157.9500000000000	0	n/a	94771	StartRest	XXXXX	n/a	n/a	8
167.9816666666667	0	n/a	100790	StopRest	XXXXX	n/a	n/a	8
167.9833333333333	0	UPPT001	100791	StartPractice	41324	n/a	n/a	9
168.7300000000000	0	n/a	101239	KeyDown	41324	4	Index	9
169.0966666666667	0	n/a	101459	KeyDown	41324	1	Little	9
169.4550000000000	0	n/a	101674	KeyDown	41324	3	Middle	9
169.7000000000000	0	n/a	101821	KeyDown	41324	2	Ring	9
169.9516666666667	0	n/a	101972	KeyDown	41324	4	Index	9
170.4616666666667	0	n/a	102278	KeyDown	41324	4	Index	9
170.8583333333333	0	n/a	102516	KeyDown	41324	1	Little	9
171.2700000000000	0	n/a	102763	KeyDown	41324	3	Middle	9
171.5016666666667	0	n/a	102902	KeyDown	41324	2	Ring	9
171.7650000000000	0	n/a	103060	KeyDown	41324	4	Index	9
172.2416666666667	0	n/a	103346	KeyDown	41324	4	Index	9
172.6433333333333	0	n/a	103587	KeyDown	41324	1	Little	9
173.0200000000000	0	n/a	103813	KeyDown	41324	3	Middle	9
173.2616666666667	0	n/a	103958	KeyDown	41324	2	Ring	9
173.5016666666667	0	n/a	104102	KeyDown	41324	4	Index	9
174.3566666666667	0	n/a	104615	KeyDown	41324	4	Index	9
174.7600000000000	0	n/a	104857	KeyDown	41324	1	Little	9
175.1633333333334	0	n/a	105099	KeyDown	41324	3	Middle	9
175.4900000000000	0	n/a	105295	KeyDown	41324	2	Ring	9
175.9233333333333	0	n/a	105555	KeyDown	41324	4	Index	9
176.5783333333333	0	n/a	105948	KeyDown	41324	4	Index	9
176.9200000000000	0	n/a	106153	KeyDown	41324	1	Little	9
177.2483333333333	0	n/a	106350	KeyDown	41324	3	Middle	9
177.4966666666667	0	n/a	106499	KeyDown	41324	2	Ring	9
177.7966666666667	0	n/a	106679	KeyDown	41324	4	Index	9
178.0216666666667	0	n/a	106814	StopPractice	41324	n/a	n/a	9
178.0233333333333	0	n/a	106815	StartRest	XXXXX	n/a	n/a	9
188.0583333333333	0	n/a	112836	StopRest	XXXXX	n/a	n/a	9
188.0600000000000	0	UPPT001	112837	StartPractice	41324	n/a	n/a	10
188.6183333333333	0	n/a	113172	KeyDown	41324	4	Index	10
188.9483333333334	0	n/a	113370	KeyDown	41324	1	Little	10
189.3100000000000	0	n/a	113587	KeyDown	41324	3	Middle	10
189.5483333333333	0	n/a	113730	KeyDown	41324	2	Ring	10
189.7633333333333	0	n/a	113859	KeyDown	41324	4	Index	10
190.3583333333333	0	n/a	114216	KeyDown	41324	4	Index	10
191.1883333333333	0	n/a	114714	KeyDown	41324	1	Little	10
191.5816666666667	0	n/a	114950	KeyDown	41324	3	Middle	10
191.8083333333333	0	n/a	115086	KeyDown	41324	2	Ring	10
192.0466666666667	0	n/a	115229	KeyDown	41324	4	Index	10
192.5433333333334	0	n/a	115527	KeyDown	41324	4	Index	10
193.1500000000000	0	n/a	115891	KeyDown	41324	1	Little	10
193.6300000000000	0	n/a	116179	KeyDown	41324	3	Middle	10
193.8683333333333	0	n/a	116322	KeyDown	41324	2	Ring	10
194.1583333333334	0	n/a	116496	KeyDown	41324	4	Index	10
195.4166666666667	0	n/a	117251	KeyDown	41324	4	Index	10
195.9066666666667	0	n/a	117545	KeyDown	41324	1	Little	10
196.8333333333333	0	n/a	118101	KeyDown	41324	3	Middle	10
197.1283333333334	0	n/a	118278	KeyDown	41324	2	Ring	10
197.3816666666667	0	n/a	118430	KeyDown	41324	4	Index	10
197.7750000000000	0	n/a	118666	KeyDown	41324	4	Index	10
198.0333333333334	0	n/a	118821	KeyDown	41324	1	Little	10
198.0983333333334	0	n/a	118860	StopPractice	41324	n/a	n/a	10
198.1000000000000	0	n/a	118861	StartRest	XXXXX	n/a	n/a	10
208.1316666666667	0	n/a	124880	StopRest	XXXXX	n/a	n/a	10
208.1333333333334	0	UPPT001	124881	StartPractice	41324	n/a	n/a	11
208.9200000000000	0	n/a	125353	KeyDown	41324	4	Index	11
209.3833333333334	0	n/a	125631	KeyDown	41324	1	Little	11
209.7583333333334	0	n/a	125856	KeyDown	41324	3	Middle	11
210.0166666666667	0	n/a	126011	KeyDown	41324	2	Ring	11
210.2700000000000	0	n/a	126163	KeyDown	41324	4	Index	11
210.8033333333333	0	n/a	126483	KeyDown	41324	4	Index	11
211.1966666666667	0	n/a	126719	KeyDown	41324	1	Little	11
211.6016666666667	0	n/a	126962	KeyDown	41324	3	Middle	11
211.7700000000000	0	n/a	127063	KeyDown	41324	2	Ring	11
212.1250000000000	0	n/a	127276	KeyDown	41324	4	Index	11
212.6616666666667	0	n/a	127598	KeyDown	41324	4	Index	11
213.0466666666667	0	n/a	127829	KeyDown	41324	1	Little	11
213.4100000000000	0	n/a	128047	KeyDown	41324	3	Middle	11
213.5866666666667	0	n/a	128153	KeyDown	41324	2	Ring	11
214.0066666666667	0	n/a	128405	KeyDown	41324	4	Index	11
214.5566666666667	0	n/a	128735	KeyDown	41324	4	Index	11
215.0000000000000	0	n/a	129001	KeyDown	41324	1	Little	11
215.4083333333334	0	n/a	129246	KeyDown	41324	3	Middle	11
215.6866666666667	0	n/a	129413	KeyDown	41324	2	Ring	11
215.9783333333334	0	n/a	129588	KeyDown	41324	4	Index	11
216.5250000000000	0	n/a	129916	KeyDown	41324	4	Index	11
216.9600000000000	0	n/a	130177	KeyDown	41324	1	Little	11
217.4166666666667	0	n/a	130451	KeyDown	41324	3	Middle	11
217.7216666666667	0	n/a	130634	KeyDown	41324	2	Ring	11
218.0950000000000	0	n/a	130858	KeyDown	41324	4	Index	11
218.1716666666667	0	n/a	130904	StopPractice	41324	n/a	n/a	11
218.1733333333333	0	n/a	130905	StartRest	XXXXX	n/a	n/a	11
228.2066666666667	0	n/a	136925	StopRest	XXXXX	n/a	n/a	11
228.2083333333333	0	UPPT001	136926	StartPractice	41324	n/a	n/a	12
228.6216666666667	0	n/a	137174	KeyDown	41324	4	Index	12
229.0700000000000	0	n/a	137443	KeyDown	41324	1	Little	12
229.4200000000000	0	n/a	137653	KeyDown	41324	3	Middle	12
229.6466666666667	0	n/a	137789	KeyDown	41324	2	Ring	12
229.9166666666667	0	n/a	137951	KeyDown	41324	4	Index	12
230.4450000000000	0	n/a	138268	KeyDown	41324	4	Index	12
230.8850000000000	0	n/a	138532	KeyDown	41324	1	Little	12
231.2650000000000	0	n/a	138760	KeyDown	41324	3	Middle	12
231.5250000000000	0	n/a	138916	KeyDown	41324	2	Ring	12
231.7816666666667	0	n/a	139070	KeyDown	41324	4	Index	12
233.8900000000000	0	n/a	140335	KeyDown	41324	4	Index	12
234.3050000000000	0	n/a	140584	KeyDown	41324	1	Little	12
234.6800000000000	0	n/a	140809	KeyDown	41324	3	Middle	12
234.9266666666667	0	n/a	140957	KeyDown	41324	2	Ring	12
235.1683333333334	0	n/a	141102	KeyDown	41324	4	Index	12
235.8183333333334	0	n/a	141492	KeyDown	41324	4	Index	12
236.2650000000000	0	n/a	141760	KeyDown	41324	1	Little	12
237.0383333333334	0	n/a	142224	KeyDown	41324	4	Index	12
237.2316666666667	0	n/a	142340	KeyDown	41324	3	Middle	12
237.3900000000000	0	n/a	142435	KeyDown	41324	2	Ring	12
238.2466666666667	0	n/a	142949	StopPractice	41324	n/a	n/a	12
238.2483333333333	0	n/a	142950	StartRest	XXXXX	n/a	n/a	12
248.2816666666667	0	n/a	148970	StopRest	XXXXX	n/a	n/a	12
248.2833333333334	0	UPPT001	148971	StartPractice	41324	n/a	n/a	13
248.9566666666667	0	n/a	149375	KeyDown	41324	4	Index	13
249.3733333333334	0	n/a	149625	KeyDown	41324	1	Little	13
249.7766666666667	0	n/a	149867	KeyDown	41324	3	Middle	13
250.0750000000000	0	n/a	150046	KeyDown	41324	2	Ring	13
250.3666666666667	0	n/a	150221	KeyDown	41324	4	Index	13
250.8316666666667	0	n/a	150500	KeyDown	41324	4	Index	13
251.3016666666667	0	n/a	150782	KeyDown	41324	1	Little	13
251.7266666666667	0	n/a	151037	KeyDown	41324	3	Middle	13
251.9716666666667	0	n/a	151184	KeyDown	41324	2	Ring	13
252.2483333333334	0	n/a	151350	KeyDown	41324	4	Index	13
252.7400000000000	0	n/a	151645	KeyDown	41324	4	Index	13
253.2150000000000	0	n/a	151930	KeyDown	41324	1	Little	13
253.6416666666667	0	n/a	152186	KeyDown	41324	3	Middle	13
253.9666666666667	0	n/a	152381	KeyDown	41324	2	Ring	13
254.2500000000000	0	n/a	152551	KeyDown	41324	4	Index	13
254.8200000000000	0	n/a	152893	KeyDown	41324	4	Index	13
255.3350000000000	0	n/a	153202	KeyDown	41324	1	Little	13
255.7766666666667	0	n/a	153467	KeyDown	41324	3	Middle	13
256.0016666666667	0	n/a	153602	KeyDown	41324	2	Ring	13
256.3083333333333	0	n/a	153786	KeyDown	41324	4	Index	13
256.7583333333333	0	n/a	154056	KeyDown	41324	4	Index	13
257.1066666666667	0	n/a	154265	KeyDown	41324	1	Little	13
257.5066666666667	0	n/a	154505	KeyDown	41324	3	Middle	13
257.7950000000000	0	n/a	154678	KeyDown	41324	2	Ring	13
258.1100000000000	0	n/a	154867	KeyDown	41324	4	Index	13
258.3216666666667	0	n/a	154994	StopPractice	41324	n/a	n/a	13
258.3233333333333	0	n/a	154995	StartRest	XXXXX	n/a	n/a	13
268.3566666666667	0	n/a	161015	StopRest	XXXXX	n/a	n/a	13
268.3583333333333	0	UPPT001	161016	StartPractice	41324	n/a	n/a	14
268.9616666666667	0	n/a	161378	KeyDown	41324	4	Index	14
269.3716666666667	0	n/a	161624	KeyDown	41324	1	Little	14
269.7416666666667	0	n/a	161846	KeyDown	41324	3	Middle	14
270.0600000000000	0	n/a	162037	KeyDown	41324	2	Ring	14
270.3316666666667	0	n/a	162200	KeyDown	41324	4	Index	14
270.8333333333334	0	n/a	162501	KeyDown	41324	4	Index	14
271.3550000000000	0	n/a	162814	KeyDown	41324	1	Little	14
271.7916666666667	0	n/a	163076	KeyDown	41324	3	Middle	14
272.0283333333334	0	n/a	163218	KeyDown	41324	2	Ring	14
272.3066666666667	0	n/a	163385	KeyDown	41324	4	Index	14
272.7816666666667	0	n/a	163670	KeyDown	41324	4	Index	14
273.1833333333333	0	n/a	163911	KeyDown	41324	1	Little	14
273.5666666666667	0	n/a	164141	KeyDown	41324	3	Middle	14
273.8050000000000	0	n/a	164284	KeyDown	41324	2	Ring	14
274.0733333333333	0	n/a	164445	KeyDown	41324	4	Index	14
274.5266666666667	0	n/a	164717	KeyDown	41324	4	Index	14
274.9250000000000	0	n/a	164956	KeyDown	41324	1	Little	14
275.3266666666667	0	n/a	165197	KeyDown	41324	3	Middle	14
275.5766666666667	0	n/a	165347	KeyDown	41324	2	Ring	14
275.8983333333334	0	n/a	165540	KeyDown	41324	4	Index	14
276.7100000000000	0	n/a	166027	KeyDown	41324	1	Little	14
278.3966666666667	0	n/a	167039	StopPractice	41324	n/a	n/a	14
278.3983333333334	0	n/a	167040	StartRest	XXXXX	n/a	n/a	14
288.4316666666667	0	n/a	173060	StopRest	XXXXX	n/a	n/a	14
288.4333333333333	0	UPPT001	173061	StartPractice	41324	n/a	n/a	15
289.0366666666667	0	n/a	173423	KeyDown	41324	4	Index	15
289.4183333333334	0	n/a	173652	KeyDown	41324	1	Little	15
289.7483333333333	0	n/a	173850	KeyDown	41324	3	Middle	15
289.9716666666667	0	n/a	173984	KeyDown	41324	2	Ring	15
290.2100000000000	0	n/a	174127	KeyDown	41324	4	Index	15
290.7266666666667	0	n/a	174437	KeyDown	41324	4	Index	15
291.1266666666667	0	n/a	174677	KeyDown	41324	1	Little	15
291.5650000000000	0	n/a	174940	KeyDown	41324	3	Middle	15
291.8100000000000	0	n/a	175087	KeyDown	41324	2	Ring	15
292.0783333333334	0	n/a	175248	KeyDown	41324	4	Index	15
292.5550000000000	0	n/a	175534	KeyDown	41324	4	Index	15
292.9916666666667	0	n/a	175796	KeyDown	41324	1	Little	15
293.3833333333333	0	n/a	176031	KeyDown	41324	3	Middle	15
293.6016666666667	0	n/a	176162	KeyDown	41324	2	Ring	15
293.8550000000000	0	n/a	176314	KeyDown	41324	4	Index	15
294.3150000000000	0	n/a	176590	KeyDown	41324	4	Index	15
294.7266666666667	0	n/a	176837	KeyDown	41324	1	Little	15
295.2333333333333	0	n/a	177141	KeyDown	41324	3	Middle	15
295.4416666666667	0	n/a	177266	KeyDown	41324	2	Ring	15
295.6716666666667	0	n/a	177404	KeyDown	41324	4	Index	15
296.1800000000000	0	n/a	177709	KeyDown	41324	4	Index	15
296.5816666666667	0	n/a	177950	KeyDown	41324	1	Little	15
296.9500000000000	0	n/a	178171	KeyDown	41324	3	Middle	15
297.1733333333333	0	n/a	178305	KeyDown	41324	2	Ring	15
297.5783333333334	0	n/a	178548	KeyDown	41324	4	Index	15
298.3116666666667	0	n/a	178988	KeyDown	41324	4	Index	15
298.4716666666667	0	n/a	179084	StopPractice	41324	n/a	n/a	15
298.4733333333334	0	n/a	179085	StartRest	XXXXX	n/a	n/a	15
308.5066666666667	0	n/a	185105	StopRest	XXXXX	n/a	n/a	15
308.5083333333333	0	UPPT001	185106	StartPractice	41324	n/a	n/a	16
309.1066666666667	0	n/a	185465	KeyDown	41324	4	Index	16
309.4700000000000	0	n/a	185683	KeyDown	41324	1	Little	16
309.9366666666667	0	n/a	185963	KeyDown	41324	3	Middle	16
310.1700000000000	0	n/a	186103	KeyDown	41324	2	Ring	16
310.4116666666667	0	n/a	186248	KeyDown	41324	4	Index	16
310.8733333333333	0	n/a	186525	KeyDown	41324	4	Index	16
311.2916666666667	0	n/a	186776	KeyDown	41324	1	Little	16
311.6350000000000	0	n/a	186982	KeyDown	41324	3	Middle	16
311.8650000000000	0	n/a	187120	KeyDown	41324	2	Ring	16
312.1150000000000	0	n/a	187270	KeyDown	41324	4	Index	16
312.6200000000000	0	n/a	187573	KeyDown	41324	4	Index	16
313.0216666666667	0	n/a	187814	KeyDown	41324	1	Little	16
313.3883333333334	0	n/a	188034	KeyDown	41324	3	Middle	16
313.6000000000000	0	n/a	188161	KeyDown	41324	2	Ring	16
313.8416666666667	0	n/a	188306	KeyDown	41324	4	Index	16
314.3150000000000	0	n/a	188590	KeyDown	41324	4	Index	16
314.7300000000000	0	n/a	188839	KeyDown	41324	1	Little	16
315.1200000000000	0	n/a	189073	KeyDown	41324	3	Middle	16
315.3600000000000	0	n/a	189217	KeyDown	41324	2	Ring	16
315.6316666666667	0	n/a	189380	KeyDown	41324	4	Index	16
316.1250000000000	0	n/a	189676	KeyDown	41324	4	Index	16
316.5816666666667	0	n/a	189950	KeyDown	41324	1	Little	16
317.0433333333334	0	n/a	190227	KeyDown	41324	3	Middle	16
317.2433333333333	0	n/a	190347	KeyDown	41324	2	Ring	16
317.4966666666667	0	n/a	190499	KeyDown	41324	4	Index	16
317.9533333333334	0	n/a	190773	KeyDown	41324	4	Index	16
318.4116666666667	0	n/a	191048	KeyDown	41324	1	Little	16
318.5466666666667	0	n/a	191129	StopPractice	41324	n/a	n/a	16
318.5483333333333	0	n/a	191130	StartRest	XXXXX	n/a	n/a	16
328.5816666666667	0	n/a	197150	StopRest	XXXXX	n/a	n/a	16
328.5833333333334	0	UPPT001	197151	StartPractice	41324	n/a	n/a	17
329.0583333333333	0	n/a	197436	KeyDown	41324	4	Index	17
329.4550000000000	0	n/a	197674	KeyDown	41324	1	Little	17
329.8016666666667	0	n/a	197882	KeyDown	41324	3	Middle	17
330.0233333333334	0	n/a	198015	KeyDown	41324	2	Ring	17
330.3350000000000	0	n/a	198202	KeyDown	41324	4	Index	17
330.8316666666667	0	n/a	198500	KeyDown	41324	4	Index	17
331.2366666666667	0	n/a	198743	KeyDown	41324	1	Little	17
331.6116666666667	0	n/a	198968	KeyDown	41324	3	Middle	17
331.8350000000000	0	n/a	199102	KeyDown	41324	2	Ring	17
332.1416666666667	0	n/a	199286	KeyDown	41324	4	Index	17
332.6300000000000	0	n/a	199579	KeyDown	41324	4	Index	17
333.0950000000000	0	n/a	199858	KeyDown	41324	1	Little	17
333.4800000000000	0	n/a	200089	KeyDown	41324	3	Middle	17
333.6950000000000	0	n/a	200218	KeyDown	41324	2	Ring	17
334.0050000000000	0	n/a	200404	KeyDown	41324	4	Index	17
334.4516666666667	0	n/a	200672	KeyDown	41324	4	Index	17
334.8666666666667	0	n/a	200921	KeyDown	41324	1	Little	17
335.2633333333334	0	n/a	201159	KeyDown	41324	3	Middle	17
335.4650000000000	0	n/a	201280	KeyDown	41324	2	Ring	17
335.7600000000000	0	n/a	201457	KeyDown	41324	4	Index	17
336.1883333333333	0	n/a	201714	KeyDown	41324	4	Index	17
336.5950000000000	0	n/a	201958	KeyDown	41324	1	Little	17
337.0650000000000	0	n/a	202240	KeyDown	41324	3	Middle	17
337.2900000000000	0	n/a	202375	KeyDown	41324	2	Ring	17
337.5500000000000	0	n/a	202531	KeyDown	41324	4	Index	17
338.1700000000000	0	n/a	202903	KeyDown	41324	4	Index	17
338.5816666666667	0	n/a	203150	KeyDown	41324	1	Little	17
338.6216666666667	0	n/a	203174	StopPractice	41324	n/a	n/a	17
338.6233333333333	0	n/a	203175	StartRest	XXXXX	n/a	n/a	17
348.6566666666667	0	n/a	209195	StopRest	XXXXX	n/a	n/a	17
348.6583333333334	0	UPPT001	209196	StartPractice	41324	n/a	n/a	18
349.1516666666667	0	n/a	209492	KeyDown	41324	4	Index	18
349.5550000000000	0	n/a	209734	KeyDown	41324	1	Little	18
349.8616666666667	0	n/a	209918	KeyDown	41324	3	Middle	18
350.0950000000000	0	n/a	210058	KeyDown	41324	2	Ring	18
350.3566666666667	0	n/a	210215	KeyDown	41324	4	Index	18
350.8616666666667	0	n/a	210518	KeyDown	41324	4	Index	18
351.2850000000000	0	n/a	210772	KeyDown	41324	1	Little	18
351.7050000000000	0	n/a	211024	KeyDown	41324	3	Middle	18
351.9500000000000	0	n/a	211171	KeyDown	41324	2	Ring	18
352.2100000000000	0	n/a	211327	KeyDown	41324	4	Index	18
352.6850000000000	0	n/a	211612	KeyDown	41324	4	Index	18
353.1133333333333	0	n/a	211869	KeyDown	41324	1	Little	18
353.4966666666667	0	n/a	212099	KeyDown	41324	3	Middle	18
353.7166666666667	0	n/a	212231	KeyDown	41324	2	Ring	18
353.9966666666667	0	n/a	212399	KeyDown	41324	4	Index	18
354.4450000000001	0	n/a	212668	KeyDown	41324	4	Index	18
354.9183333333334	0	n/a	212952	KeyDown	41324	1	Little	18
355.2866666666667	0	n/a	213173	KeyDown	41324	3	Middle	18
355.5016666666667	0	n/a	213302	KeyDown	41324	2	Ring	18
355.8150000000000	0	n/a	213490	KeyDown	41324	4	Index	18
356.2833333333334	0	n/a	213771	KeyDown	41324	4	Index	18
356.6900000000000	0	n/a	214015	KeyDown	41324	1	Little	18
357.2316666666667	0	n/a	214340	KeyDown	41324	3	Middle	18
357.4500000000000	0	n/a	214471	KeyDown	41324	2	Ring	18
357.7200000000000	0	n/a	214633	KeyDown	41324	4	Index	18
358.2066666666667	0	n/a	214925	KeyDown	41324	4	Index	18
358.6433333333334	0	n/a	215187	KeyDown	41324	1	Little	18
358.6966666666667	0	n/a	215219	StopPractice	41324	n/a	n/a	18
358.6983333333334	0	n/a	215220	StartRest	XXXXX	n/a	n/a	18
368.7300000000000	0	n/a	221239	StopRest	XXXXX	n/a	n/a	18
368.7316666666667	0	UPPT001	221240	StartPractice	41324	n/a	n/a	19
369.3866666666667	0	n/a	221633	KeyDown	41324	4	Index	19
369.7816666666667	0	n/a	221870	KeyDown	41324	1	Little	19
370.1050000000000	0	n/a	222064	KeyDown	41324	3	Middle	19
370.3150000000000	0	n/a	222190	KeyDown	41324	2	Ring	19
370.5966666666667	0	n/a	222359	KeyDown	41324	4	Index	19
371.0966666666667	0	n/a	222659	KeyDown	41324	4	Index	19
371.5133333333334	0	n/a	222909	KeyDown	41324	1	Little	19
371.8550000000000	0	n/a	223114	KeyDown	41324	3	Middle	19
372.0683333333334	0	n/a	223242	KeyDown	41324	2	Ring	19
372.3300000000000	0	n/a	223399	KeyDown	41324	4	Index	19
372.8033333333333	0	n/a	223683	KeyDown	41324	4	Index	19
373.2083333333334	0	n/a	223926	KeyDown	41324	1	Little	19
373.5700000000001	0	n/a	224143	KeyDown	41324	3	Middle	19
373.7733333333334	0	n/a	224265	KeyDown	41324	2	Ring	19
374.0866666666667	0	n/a	224453	KeyDown	41324	4	Index	19
374.5583333333333	0	n/a	224736	KeyDown	41324	4	Index	19
374.9533333333334	0	n/a	224973	KeyDown	41324	1	Little	19
375.5566666666667	0	n/a	225335	KeyDown	41324	3	Middle	19
375.6783333333333	0	n/a	225408	KeyDown	41324	2	Ring	19
376.1000000000000	0	n/a	225661	KeyDown	41324	4	Index	19
376.5066666666667	0	n/a	225905	KeyDown	41324	4	Index	19
376.8800000000001	0	n/a	226129	KeyDown	41324	1	Little	19
377.2300000000000	0	n/a	226339	KeyDown	41324	3	Middle	19
377.3650000000000	0	n/a	226420	KeyDown	41324	2	Ring	19
377.8233333333334	0	n/a	226695	KeyDown	41324	4	Index	19
378.7700000000000	0	n/a	227263	StopPractice	41324	n/a	n/a	19
378.7716666666667	0	n/a	227264	StartRest	XXXXX	n/a	n/a	19
388.8050000000000	0	n/a	233284	StopRest	XXXXX	n/a	n/a	19
388.8066666666667	0	UPPT001	233285	StartPractice	41324	n/a	n/a	20
389.3766666666667	0	n/a	233627	KeyDown	41324	4	Index	20
389.7800000000000	0	n/a	233869	KeyDown	41324	1	Little	20
390.0950000000000	0	n/a	234058	KeyDown	41324	3	Middle	20
390.3283333333334	0	n/a	234198	KeyDown	41324	2	Ring	20
390.5983333333334	0	n/a	234360	KeyDown	41324	4	Index	20
391.0783333333334	0	n/a	234648	KeyDown	41324	4	Index	20
391.5083333333334	0	n/a	234906	KeyDown	41324	1	Little	20
391.8533333333334	0	n/a	235113	KeyDown	41324	3	Middle	20
392.0850000000000	0	n/a	235252	KeyDown	41324	2	Ring	20
392.3916666666667	0	n/a	235436	KeyDown	41324	4	Index	20
392.9400000000000	0	n/a	235765	KeyDown	41324	4	Index	20
393.3583333333333	0	n/a	236016	KeyDown	41324	1	Little	20
393.7400000000000	0	n/a	236245	KeyDown	41324	3	Middle	20
393.9750000000000	0	n/a	236386	KeyDown	41324	2	Ring	20
394.2500000000000	0	n/a	236551	KeyDown	41324	4	Index	20
394.7483333333333	0	n/a	236850	KeyDown	41324	4	Index	20
395.2566666666667	0	n/a	237155	KeyDown	41324	1	Little	20
395.6566666666667	0	n/a	237395	KeyDown	41324	3	Middle	20
395.8733333333333	0	n/a	237525	KeyDown	41324	2	Ring	20
396.1683333333334	0	n/a	237702	KeyDown	41324	4	Index	20
396.6650000000000	0	n/a	238000	KeyDown	41324	4	Index	20
397.1450000000000	0	n/a	238288	KeyDown	41324	1	Little	20
397.5500000000000	0	n/a	238531	KeyDown	41324	3	Middle	20
397.7616666666667	0	n/a	238658	KeyDown	41324	2	Ring	20
398.0350000000000	0	n/a	238822	KeyDown	41324	4	Index	20
398.5233333333334	0	n/a	239115	KeyDown	41324	4	Index	20
398.8450000000000	0	n/a	239308	StopPractice	41324	n/a	n/a	20
398.8466666666667	0	n/a	239309	StartRest	XXXXX	n/a	n/a	20
408.8800000000001	0	n/a	245329	StopRest	XXXXX	n/a	n/a	20
408.8816666666667	0	UPPT001	245330	StartPractice	41324	n/a	n/a	21
409.3950000000000	0	n/a	245638	KeyDown	41324	4	Index	21
409.8300000000000	0	n/a	245899	KeyDown	41324	1	Little	21
410.1883333333333	0	n/a	246114	KeyDown	41324	3	Middle	21
410.4133333333334	0	n/a	246249	KeyDown	41324	2	Ring	21
410.6733333333333	0	n/a	246405	KeyDown	41324	4	Index	21
411.1550000000000	0	n/a	246694	KeyDown	41324	4	Index	21
411.5833333333334	0	n/a	246951	KeyDown	41324	1	Little	21
411.9800000000000	0	n/a	247189	KeyDown	41324	3	Middle	21
412.1933333333334	0	n/a	247317	KeyDown	41324	2	Ring	21
412.4366666666667	0	n/a	247463	KeyDown	41324	4	Index	21
412.9783333333334	0	n/a	247788	KeyDown	41324	4	Index	21
413.4600000000000	0	n/a	248077	KeyDown	41324	1	Little	21
413.9150000000000	0	n/a	248350	KeyDown	41324	3	Middle	21
414.0700000000001	0	n/a	248443	KeyDown	41324	2	Ring	21
414.3766666666667	0	n/a	248627	KeyDown	41324	4	Index	21
414.8283333333334	0	n/a	248898	KeyDown	41324	4	Index	21
415.2550000000001	0	n/a	249154	KeyDown	41324	1	Little	21
415.6366666666667	0	n/a	249383	KeyDown	41324	3	Middle	21
415.8383333333334	0	n/a	249504	KeyDown	41324	2	Ring	21
416.2650000000000	0	n/a	249760	KeyDown	41324	4	Index	21
416.8433333333334	0	n/a	250107	KeyDown	41324	4	Index	21
417.2850000000000	0	n/a	250372	KeyDown	41324	1	Little	21
417.8716666666667	0	n/a	250724	KeyDown	41324	3	Middle	21
418.0300000000000	0	n/a	250819	KeyDown	41324	2	Ring	21
418.3933333333334	0	n/a	251037	KeyDown	41324	4	Index	21
418.9200000000000	0	n/a	251353	StopPractice	41324	n/a	n/a	21
418.9216666666667	0	n/a	251354	StartRest	XXXXX	n/a	n/a	21
428.9566666666667	0	n/a	257375	StopRest	XXXXX	n/a	n/a	21
428.9583333333334	0	UPPT001	257376	StartPractice	41324	n/a	n/a	22
429.5366666666667	0	n/a	257723	KeyDown	41324	4	Index	22
429.9450000000001	0	n/a	257968	KeyDown	41324	1	Little	22
430.2500000000000	0	n/a	258151	KeyDown	41324	3	Middle	22
430.4816666666667	0	n/a	258290	KeyDown	41324	2	Ring	22
430.7366666666667	0	n/a	258443	KeyDown	41324	4	Index	22
431.1750000000000	0	n/a	258706	KeyDown	41324	4	Index	22
431.5950000000000	0	n/a	258958	KeyDown	41324	1	Little	22
431.9166666666667	0	n/a	259151	KeyDown	41324	3	Middle	22
432.1400000000000	0	n/a	259285	KeyDown	41324	2	Ring	22
432.4000000000000	0	n/a	259441	KeyDown	41324	4	Index	22
432.8766666666667	0	n/a	259727	KeyDown	41324	4	Index	22
433.2850000000000	0	n/a	259972	KeyDown	41324	1	Little	22
433.7066666666667	0	n/a	260225	KeyDown	41324	3	Middle	22
433.9316666666667	0	n/a	260360	KeyDown	41324	2	Ring	22
434.2166666666667	0	n/a	260531	KeyDown	41324	4	Index	22
434.6766666666667	0	n/a	260807	KeyDown	41324	4	Index	22
435.1166666666667	0	n/a	261071	KeyDown	41324	1	Little	22
435.5150000000000	0	n/a	261310	KeyDown	41324	3	Middle	22
435.7250000000000	0	n/a	261436	KeyDown	41324	2	Ring	22
435.9583333333334	0	n/a	261576	KeyDown	41324	4	Index	22
436.4600000000000	0	n/a	261877	KeyDown	41324	4	Index	22
436.8983333333334	0	n/a	262140	KeyDown	41324	1	Little	22
437.3150000000001	0	n/a	262390	KeyDown	41324	3	Middle	22
437.5200000000000	0	n/a	262513	KeyDown	41324	2	Ring	22
437.8016666666667	0	n/a	262682	KeyDown	41324	4	Index	22
438.2416666666667	0	n/a	262946	KeyDown	41324	4	Index	22
438.8116666666667	0	n/a	263288	KeyDown	41324	1	Little	22
438.9966666666667	0	n/a	263399	StopPractice	41324	n/a	n/a	22
438.9983333333333	0	n/a	263400	StartRest	XXXXX	n/a	n/a	22
449.0300000000000	0	n/a	269419	StopRest	XXXXX	n/a	n/a	22
449.0316666666667	0	UPPT001	269420	StartPractice	41324	n/a	n/a	23
449.5766666666667	0	n/a	269747	KeyDown	41324	4	Index	23
450.0150000000000	0	n/a	270010	KeyDown	41324	1	Little	23
450.3383333333334	0	n/a	270204	KeyDown	41324	3	Middle	23
450.5650000000001	0	n/a	270340	KeyDown	41324	2	Ring	23
450.8350000000000	0	n/a	270502	KeyDown	41324	4	Index	23
451.3250000000000	0	n/a	270796	KeyDown	41324	4	Index	23
451.7633333333334	0	n/a	271059	KeyDown	41324	1	Little	23
452.1233333333333	0	n/a	271275	KeyDown	41324	3	Middle	23
452.2700000000000	0	n/a	271363	KeyDown	41324	2	Ring	23
452.7133333333334	0	n/a	271629	KeyDown	41324	4	Index	23
453.1800000000000	0	n/a	271909	KeyDown	41324	4	Index	23
453.6183333333333	0	n/a	272172	KeyDown	41324	1	Little	23
454.0016666666667	0	n/a	272402	KeyDown	41324	3	Middle	23
454.1350000000000	0	n/a	272482	KeyDown	41324	2	Ring	23
454.2966666666667	0	n/a	272579	KeyDown	41324	1	Little	23
454.6900000000001	0	n/a	272815	KeyDown	41324	4	Index	23
455.2833333333334	0	n/a	273171	KeyDown	41324	4	Index	23
455.6883333333334	0	n/a	273414	KeyDown	41324	1	Little	23
456.0683333333334	0	n/a	273642	KeyDown	41324	3	Middle	23
456.1833333333333	0	n/a	273711	KeyDown	41324	2	Ring	23
456.5750000000000	0	n/a	273946	KeyDown	41324	4	Index	23
457.0483333333333	0	n/a	274230	KeyDown	41324	4	Index	23
457.4500000000000	0	n/a	274471	KeyDown	41324	1	Little	23
457.8333333333334	0	n/a	274701	KeyDown	41324	3	Middle	23
457.9450000000001	0	n/a	274768	KeyDown	41324	2	Ring	23
458.3650000000000	0	n/a	275020	KeyDown	41324	4	Index	23
459.0700000000001	0	n/a	275443	StopPractice	41324	n/a	n/a	23
459.0716666666667	0	n/a	275444	StartRest	XXXXX	n/a	n/a	23
469.1050000000000	0	n/a	281464	StopRest	XXXXX	n/a	n/a	23
469.1066666666667	0	UPPT001	281465	StartPractice	41324	n/a	n/a	24
469.6816666666667	0	n/a	281810	KeyDown	41324	4	Index	24
470.0933333333334	0	n/a	282057	KeyDown	41324	1	Little	24
470.4650000000000	0	n/a	282280	KeyDown	41324	3	Middle	24
470.7133333333334	0	n/a	282429	KeyDown	41324	2	Ring	24
470.9983333333334	0	n/a	282600	KeyDown	41324	4	Index	24
471.4833333333333	0	n/a	282891	KeyDown	41324	4	Index	24
471.9533333333334	0	n/a	283173	KeyDown	41324	1	Little	24
472.3350000000000	0	n/a	283402	KeyDown	41324	3	Middle	24
472.5650000000001	0	n/a	283540	KeyDown	41324	2	Ring	24
472.8983333333334	0	n/a	283740	KeyDown	41324	4	Index	24
473.3783333333334	0	n/a	284028	KeyDown	41324	4	Index	24
473.8000000000000	0	n/a	284281	KeyDown	41324	1	Little	24
474.2816666666667	0	n/a	284570	KeyDown	41324	3	Middle	24
474.5233333333334	0	n/a	284715	KeyDown	41324	2	Ring	24
474.8000000000000	0	n/a	284881	KeyDown	41324	4	Index	24
475.2933333333334	0	n/a	285177	KeyDown	41324	4	Index	24
475.7766666666667	0	n/a	285467	KeyDown	41324	1	Little	24
476.2116666666667	0	n/a	285728	KeyDown	41324	3	Middle	24
476.3483333333334	0	n/a	285810	KeyDown	41324	2	Ring	24
476.8400000000000	0	n/a	286105	KeyDown	41324	4	Index	24
477.4283333333333	0	n/a	286458	KeyDown	41324	4	Index	24
477.8900000000000	0	n/a	286735	KeyDown	41324	1	Little	24
478.2833333333334	0	n/a	286971	KeyDown	41324	3	Middle	24
478.5150000000000	0	n/a	287110	KeyDown	41324	2	Ring	24
478.8300000000000	0	n/a	287299	KeyDown	41324	4	Index	24
479.1450000000000	0	n/a	287488	StopPractice	41324	n/a	n/a	24
479.1466666666667	0	n/a	287489	StartRest	XXXXX	n/a	n/a	24
489.1800000000000	0	n/a	293509	StopRest	XXXXX	n/a	n/a	24
489.1816666666667	0	UPPT001	293510	StartPractice	41324	n/a	n/a	25
489.6250000000001	0	n/a	293776	KeyDown	41324	4	Index	25
490.0433333333334	0	n/a	294027	KeyDown	41324	1	Little	25
490.3516666666667	0	n/a	294212	KeyDown	41324	3	Middle	25
490.5983333333334	0	n/a	294360	KeyDown	41324	2	Ring	25
490.8633333333333	0	n/a	294519	KeyDown	41324	4	Index	25
491.3066666666667	0	n/a	294785	KeyDown	41324	4	Index	25
491.7783333333334	0	n/a	295068	KeyDown	41324	1	Little	25
492.1450000000000	0	n/a	295288	KeyDown	41324	3	Middle	25
492.3666666666667	0	n/a	295421	KeyDown	41324	2	Ring	25
492.6750000000000	0	n/a	295606	KeyDown	41324	4	Index	25
493.1583333333334	0	n/a	295896	KeyDown	41324	4	Index	25
493.6200000000000	0	n/a	296173	KeyDown	41324	1	Little	25
494.1000000000000	0	n/a	296461	KeyDown	41324	3	Middle	25
494.3366666666667	0	n/a	296603	KeyDown	41324	2	Ring	25
494.5850000000000	0	n/a	296752	KeyDown	41324	4	Index	25
495.0700000000001	0	n/a	297043	KeyDown	41324	4	Index	25
495.6000000000000	0	n/a	297361	KeyDown	41324	1	Little	25
496.1233333333334	0	n/a	297675	KeyDown	41324	4	Index	25
497.2250000000000	0	n/a	298336	KeyDown	41324	1	Little	25
497.5900000000000	0	n/a	298555	KeyDown	41324	3	Middle	25
497.6933333333334	0	n/a	298617	KeyDown	41324	2	Ring	25
498.0766666666667	0	n/a	298847	KeyDown	41324	4	Index	25
498.5733333333334	0	n/a	299145	KeyDown	41324	4	Index	25
498.9716666666667	0	n/a	299384	KeyDown	41324	1	Little	25
499.2200000000000	0	n/a	299533	StopPractice	41324	n/a	n/a	25
499.2216666666667	0	n/a	299534	StartRest	XXXXX	n/a	n/a	25
509.2550000000001	0	n/a	305554	StopRest	XXXXX	n/a	n/a	25
509.2566666666667	0	UPPT001	305555	StartPractice	41324	n/a	n/a	26
509.7850000000000	0	n/a	305872	KeyDown	41324	4	Index	26
510.1833333333334	0	n/a	306111	KeyDown	41324	1	Little	26
510.5416666666667	0	n/a	306326	KeyDown	41324	3	Middle	26
510.6933333333334	0	n/a	306417	KeyDown	41324	2	Ring	26
511.0850000000000	0	n/a	306652	KeyDown	41324	4	Index	26
511.5683333333334	0	n/a	306942	KeyDown	41324	4	Index	26
511.9933333333333	0	n/a	307197	KeyDown	41324	1	Little	26
512.3900000000000	0	n/a	307435	KeyDown	41324	3	Middle	26
512.6100000000000	0	n/a	307567	KeyDown	41324	2	Ring	26
512.9033333333334	0	n/a	307743	KeyDown	41324	4	Index	26
513.3583333333333	0	n/a	308016	KeyDown	41324	4	Index	26
513.8033333333334	0	n/a	308283	KeyDown	41324	1	Little	26
514.2566666666667	0	n/a	308555	KeyDown	41324	4	Index	26
514.4666666666667	0	n/a	308681	KeyDown	41324	3	Middle	26
514.9166666666667	0	n/a	308951	KeyDown	41324	4	Index	26
515.4650000000000	0	n/a	309280	KeyDown	41324	4	Index	26
515.9133333333334	0	n/a	309549	KeyDown	41324	1	Little	26
516.2800000000001	0	n/a	309769	KeyDown	41324	3	Middle	26
516.5083333333333	0	n/a	309906	KeyDown	41324	2	Ring	26
516.8400000000000	0	n/a	310105	KeyDown	41324	4	Index	26
517.3050000000001	0	n/a	310384	KeyDown	41324	4	Index	26
517.7583333333333	0	n/a	310656	KeyDown	41324	1	Little	26
518.2000000000000	0	n/a	310921	KeyDown	41324	3	Middle	26
518.4300000000001	0	n/a	311059	KeyDown	41324	2	Ring	26
518.7216666666667	0	n/a	311234	KeyDown	41324	4	Index	26
519.2050000000000	0	n/a	311524	KeyDown	41324	4	Index	26
519.2950000000001	0	n/a	311578	StopPractice	41324	n/a	n/a	26
519.2966666666667	0	n/a	311579	StartRest	XXXXX	n/a	n/a	26
529.3300000000000	0	n/a	317599	StopRest	XXXXX	n/a	n/a	26
529.3316666666667	0	UPPT001	317600	StartPractice	41324	n/a	n/a	27
529.9183333333334	0	n/a	317952	KeyDown	41324	4	Index	27
530.3350000000000	0	n/a	318202	KeyDown	41324	1	Little	27
530.6700000000001	0	n/a	318403	KeyDown	41324	3	Middle	27
530.9066666666668	0	n/a	318545	KeyDown	41324	2	Ring	27
531.1866666666667	0	n/a	318713	KeyDown	41324	4	Index	27
531.7050000000000	0	n/a	319024	KeyDown	41324	4	Index	27
532.0833333333334	0	n/a	319251	KeyDown	41324	1	Little	27
532.4400000000001	0	n/a	319465	KeyDown	41324	3	Middle	27
532.6466666666666	0	n/a	319589	KeyDown	41324	2	Ring	27
532.9283333333334	0	n/a	319758	KeyDown	41324	4	Index	27
533.3900000000000	0	n/a	320035	KeyDown	41324	4	Index	27
533.8383333333334	0	n/a	320304	KeyDown	41324	1	Little	27
534.2000000000000	0	n/a	320521	KeyDown	41324	3	Middle	27
534.4250000000001	0	n/a	320656	KeyDown	41324	2	Ring	27
534.7133333333334	0	n/a	320829	KeyDown	41324	4	Index	27
535.2183333333334	0	n/a	321132	KeyDown	41324	4	Index	27
535.7133333333334	0	n/a	321429	KeyDown	41324	3	Middle	27
536.9083333333334	0	n/a	322146	KeyDown	41324	4	Index	27
537.3483333333334	0	n/a	322410	KeyDown	41324	1	Little	27
537.6800000000001	0	n/a	322609	KeyDown	41324	3	Middle	27
537.9016666666668	0	n/a	322742	KeyDown	41324	2	Ring	27
538.1683333333334	0	n/a	322902	KeyDown	41324	4	Index	27
538.6600000000001	0	n/a	323197	KeyDown	41324	4	Index	27
539.0900000000000	0	n/a	323455	KeyDown	41324	1	Little	27
539.3700000000000	0	n/a	323623	StopPractice	41324	n/a	n/a	27
539.3716666666667	0	n/a	323624	StartRest	XXXXX	n/a	n/a	27
549.4050000000001	0	n/a	329644	StopRest	XXXXX	n/a	n/a	27
549.4066666666668	0	UPPT001	329645	StartPractice	41324	n/a	n/a	28
550.0633333333334	0	n/a	330039	KeyDown	41324	4	Index	28
550.6783333333334	0	n/a	330408	KeyDown	41324	1	Little	28
551.4683333333334	0	n/a	330882	KeyDown	41324	3	Middle	28
551.7133333333334	0	n/a	331029	KeyDown	41324	2	Ring	28
551.9833333333333	0	n/a	331191	KeyDown	41324	4	Index	28
552.4866666666667	0	n/a	331493	KeyDown	41324	4	Index	28
552.9416666666667	0	n/a	331766	KeyDown	41324	1	Little	28
553.3083333333334	0	n/a	331986	KeyDown	41324	3	Middle	28
553.5100000000000	0	n/a	332107	KeyDown	41324	2	Ring	28
553.7966666666667	0	n/a	332279	KeyDown	41324	4	Index	28
554.2733333333333	0	n/a	332565	KeyDown	41324	4	Index	28
554.6983333333334	0	n/a	332820	KeyDown	41324	1	Little	28
555.1633333333334	0	n/a	333099	KeyDown	41324	3	Middle	28
555.4033333333334	0	n/a	333243	KeyDown	41324	2	Ring	28
555.6700000000001	0	n/a	333403	KeyDown	41324	4	Index	28
556.1700000000001	0	n/a	333703	KeyDown	41324	4	Index	28
556.6866666666667	0	n/a	334013	KeyDown	41324	1	Little	28
557.1083333333333	0	n/a	334266	KeyDown	41324	3	Middle	28
557.3250000000000	0	n/a	334396	KeyDown	41324	2	Ring	28
557.6383333333333	0	n/a	334584	KeyDown	41324	4	Index	28
558.1383333333333	0	n/a	334884	KeyDown	41324	4	Index	28
558.6233333333333	0	n/a	335175	KeyDown	41324	1	Little	28
559.0166666666667	0	n/a	335411	KeyDown	41324	3	Middle	28
559.2200000000000	0	n/a	335533	KeyDown	41324	2	Ring	28
559.4450000000001	0	n/a	335668	StopPractice	41324	n/a	n/a	28
559.4466666666667	0	n/a	335669	StartRest	XXXXX	n/a	n/a	28
569.4800000000000	0	n/a	341689	StopRest	XXXXX	n/a	n/a	28
569.4816666666667	0	UPPT001	341690	StartPractice	41324	n/a	n/a	29
570.2700000000000	0	n/a	342163	KeyDown	41324	4	Index	29
570.6533333333334	0	n/a	342393	KeyDown	41324	1	Little	29
570.9950000000000	0	n/a	342598	KeyDown	41324	3	Middle	29
571.2066666666667	0	n/a	342725	KeyDown	41324	2	Ring	29
571.4500000000000	0	n/a	342871	KeyDown	41324	4	Index	29
571.9483333333334	0	n/a	343170	KeyDown	41324	4	Index	29
572.3483333333334	0	n/a	343410	KeyDown	41324	1	Little	29
572.6983333333334	0	n/a	343620	KeyDown	41324	3	Middle	29
572.9100000000001	0	n/a	343747	KeyDown	41324	2	Ring	29
573.1766666666667	0	n/a	343907	KeyDown	41324	4	Index	29
573.6583333333334	0	n/a	344196	KeyDown	41324	4	Index	29
574.0800000000000	0	n/a	344449	KeyDown	41324	1	Little	29
574.4333333333334	0	n/a	344661	KeyDown	41324	3	Middle	29
574.5950000000000	0	n/a	344758	KeyDown	41324	2	Ring	29
574.9933333333333	0	n/a	344997	KeyDown	41324	4	Index	29
575.4466666666667	0	n/a	345269	KeyDown	41324	4	Index	29
575.8350000000000	0	n/a	345502	KeyDown	41324	1	Little	29
576.2400000000000	0	n/a	345745	KeyDown	41324	3	Middle	29
576.4500000000000	0	n/a	345871	KeyDown	41324	2	Ring	29
576.7216666666667	0	n/a	346034	KeyDown	41324	4	Index	29
577.3383333333334	0	n/a	346404	KeyDown	41324	4	Index	29
577.8033333333334	0	n/a	346683	KeyDown	41324	1	Little	29
578.2450000000000	0	n/a	346948	KeyDown	41324	3	Middle	29
578.4666666666667	0	n/a	347081	KeyDown	41324	2	Ring	29
578.7483333333333	0	n/a	347250	KeyDown	41324	4	Index	29
579.3450000000000	0	n/a	347608	KeyDown	41324	4	Index	29
579.5200000000000	0	n/a	347713	StopPractice	41324	n/a	n/a	29
579.5216666666668	0	n/a	347714	StartRest	XXXXX	n/a	n/a	29
589.5533333333334	0	n/a	353733	StopRest	XXXXX	n/a	n/a	29
589.5550000000001	0	UPPT001	353734	StartPractice	41324	n/a	n/a	30
590.1833333333334	0	n/a	354111	KeyDown	41324	4	Index	30
590.6016666666667	0	n/a	354362	KeyDown	41324	1	Little	30
591.0000000000000	0	n/a	354601	KeyDown	41324	3	Middle	30
591.2233333333334	0	n/a	354735	KeyDown	41324	2	Ring	30
591.4833333333333	0	n/a	354891	KeyDown	41324	4	Index	30
591.9333333333334	0	n/a	355161	KeyDown	41324	4	Index	30
592.3983333333334	0	n/a	355440	KeyDown	41324	1	Little	30
592.9133333333334	0	n/a	355749	KeyDown	41324	3	Middle	30
593.2350000000000	0	n/a	355942	KeyDown	41324	2	Ring	30
593.4966666666667	0	n/a	356099	KeyDown	41324	4	Index	30
594.0116666666667	0	n/a	356408	KeyDown	41324	4	Index	30
594.4516666666667	0	n/a	356672	KeyDown	41324	1	Little	30
594.8416666666667	0	n/a	356906	KeyDown	41324	3	Middle	30
595.0700000000001	0	n/a	357043	KeyDown	41324	2	Ring	30
595.3516666666667	0	n/a	357212	KeyDown	41324	4	Index	30
595.8433333333334	0	n/a	357507	KeyDown	41324	4	Index	30
596.2916666666667	0	n/a	357776	KeyDown	41324	1	Little	30
596.6983333333334	0	n/a	358020	KeyDown	41324	3	Middle	30
596.9500000000000	0	n/a	358171	KeyDown	41324	2	Ring	30
597.2283333333334	0	n/a	358338	KeyDown	41324	4	Index	30
597.7066666666667	0	n/a	358625	KeyDown	41324	4	Index	30
598.1133333333333	0	n/a	358869	KeyDown	41324	1	Little	30
598.5500000000001	0	n/a	359131	KeyDown	41324	3	Middle	30
598.7633333333333	0	n/a	359259	KeyDown	41324	2	Ring	30
599.0650000000001	0	n/a	359440	KeyDown	41324	4	Index	30
599.5566666666667	0	n/a	359735	KeyDown	41324	4	Index	30
599.5933333333334	0	n/a	359757	StopPractice	41324	n/a	n/a	30
599.5950000000000	0	n/a	359758	StartRest	XXXXX	n/a	n/a	30
609.6300000000000	0	n/a	365779	StopRest	XXXXX	n/a	n/a	30
609.6316666666667	0	UPPT001	365780	StartPractice	41324	n/a	n/a	31
610.2583333333333	0	n/a	366156	KeyDown	41324	4	Index	31
610.6666666666667	0	n/a	366401	KeyDown	41324	1	Little	31
610.9983333333333	0	n/a	366600	KeyDown	41324	3	Middle	31
611.2283333333334	0	n/a	366738	KeyDown	41324	2	Ring	31
611.4916666666667	0	n/a	366896	KeyDown	41324	4	Index	31
611.9400000000001	0	n/a	367165	KeyDown	41324	4	Index	31
612.3683333333333	0	n/a	367422	KeyDown	41324	1	Little	31
612.7466666666667	0	n/a	367649	KeyDown	41324	3	Middle	31
612.9833333333333	0	n/a	367791	KeyDown	41324	2	Ring	31
613.2400000000000	0	n/a	367945	KeyDown	41324	4	Index	31
613.7033333333334	0	n/a	368223	KeyDown	41324	4	Index	31
614.1283333333333	0	n/a	368478	KeyDown	41324	1	Little	31
614.4900000000000	0	n/a	368695	KeyDown	41324	3	Middle	31
614.7133333333334	0	n/a	368829	KeyDown	41324	2	Ring	31
614.9966666666667	0	n/a	368999	KeyDown	41324	4	Index	31
615.4633333333334	0	n/a	369279	KeyDown	41324	4	Index	31
615.8950000000001	0	n/a	369538	KeyDown	41324	1	Little	31
616.2933333333334	0	n/a	369777	KeyDown	41324	3	Middle	31
616.4900000000000	0	n/a	369895	KeyDown	41324	2	Ring	31
616.7966666666667	0	n/a	370079	KeyDown	41324	4	Index	31
617.2450000000000	0	n/a	370348	KeyDown	41324	4	Index	31
617.6533333333334	0	n/a	370593	KeyDown	41324	1	Little	31
618.0166666666667	0	n/a	370811	KeyDown	41324	3	Middle	31
618.2366666666667	0	n/a	370943	KeyDown	41324	2	Ring	31
618.5350000000001	0	n/a	371122	KeyDown	41324	4	Index	31
619.0533333333334	0	n/a	371433	KeyDown	41324	4	Index	31
619.5400000000001	0	n/a	371725	KeyDown	41324	1	Little	31
619.6700000000001	0	n/a	371803	StopPractice	41324	n/a	n/a	31
619.6716666666667	0	n/a	371804	StartRest	XXXXX	n/a	n/a	31
629.7033333333334	0	n/a	377823	StopRest	XXXXX	n/a	n/a	31
629.7050000000000	0	UPPT001	377824	StartPractice	41324	n/a	n/a	32
630.3250000000000	0	n/a	378196	KeyDown	41324	4	Index	32
630.7166666666667	0	n/a	378431	KeyDown	41324	1	Little	32
631.0550000000001	0	n/a	378634	KeyDown	41324	3	Middle	32
631.2666666666667	0	n/a	378761	KeyDown	41324	2	Ring	32
631.5016666666667	0	n/a	378902	KeyDown	41324	4	Index	32
631.9583333333334	0	n/a	379176	KeyDown	41324	4	Index	32
632.3883333333333	0	n/a	379434	KeyDown	41324	1	Little	32
632.7816666666668	0	n/a	379670	KeyDown	41324	3	Middle	32
633.0016666666667	0	n/a	379802	KeyDown	41324	2	Ring	32
633.2616666666667	0	n/a	379958	KeyDown	41324	4	Index	32
633.6833333333334	0	n/a	380211	KeyDown	41324	4	Index	32
634.0783333333334	0	n/a	380448	KeyDown	41324	1	Little	32
634.4233333333334	0	n/a	380655	KeyDown	41324	3	Middle	32
634.6566666666668	0	n/a	380795	KeyDown	41324	2	Ring	32
634.9283333333334	0	n/a	380958	KeyDown	41324	4	Index	32
635.3616666666667	0	n/a	381218	KeyDown	41324	4	Index	32
635.8000000000001	0	n/a	381481	KeyDown	41324	1	Little	32
636.1866666666667	0	n/a	381713	KeyDown	41324	3	Middle	32
636.4016666666668	0	n/a	381842	KeyDown	41324	2	Ring	32
636.6766666666667	0	n/a	382007	KeyDown	41324	4	Index	32
637.1333333333333	0	n/a	382281	KeyDown	41324	4	Index	32
637.5366666666667	0	n/a	382523	KeyDown	41324	1	Little	32
637.8866666666667	0	n/a	382733	KeyDown	41324	3	Middle	32
638.0883333333334	0	n/a	382854	KeyDown	41324	2	Ring	32
638.3616666666667	0	n/a	383018	KeyDown	41324	4	Index	32
638.8566666666667	0	n/a	383315	KeyDown	41324	4	Index	32
639.3166666666667	0	n/a	383591	KeyDown	41324	1	Little	32
639.7183333333334	0	n/a	383832	KeyDown	41324	3	Middle	32
639.7433333333333	0	n/a	383847	StopPractice	41324	n/a	n/a	32
639.7450000000000	0	n/a	383848	StartRest	XXXXX	n/a	n/a	32
649.7783333333334	0	n/a	389868	StopRest	XXXXX	n/a	n/a	32
649.7800000000001	0	UPPT001	389869	StartPractice	41324	n/a	n/a	33
650.2500000000000	0	n/a	390151	KeyDown	41324	4	Index	33
650.7133333333334	0	n/a	390429	KeyDown	41324	1	Little	33
651.0366666666667	0	n/a	390623	KeyDown	41324	3	Middle	33
651.2550000000000	0	n/a	390754	KeyDown	41324	2	Ring	33
651.4966666666667	0	n/a	390899	KeyDown	41324	4	Index	33
651.9366666666667	0	n/a	391163	KeyDown	41324	4	Index	33
652.3733333333333	0	n/a	391425	KeyDown	41324	1	Little	33
652.7216666666667	0	n/a	391634	KeyDown	41324	3	Middle	33
652.9316666666667	0	n/a	391760	KeyDown	41324	2	Ring	33
653.2283333333334	0	n/a	391938	KeyDown	41324	4	Index	33
653.6566666666668	0	n/a	392195	KeyDown	41324	4	Index	33
654.0866666666667	0	n/a	392453	KeyDown	41324	1	Little	33
654.4233333333334	0	n/a	392655	KeyDown	41324	3	Middle	33
654.6183333333333	0	n/a	392772	KeyDown	41324	2	Ring	33
654.9216666666667	0	n/a	392954	KeyDown	41324	4	Index	33
655.3783333333333	0	n/a	393228	KeyDown	41324	4	Index	33
655.8066666666667	0	n/a	393485	KeyDown	41324	1	Little	33
656.2033333333334	0	n/a	393723	KeyDown	41324	3	Middle	33
656.4266666666667	0	n/a	393857	KeyDown	41324	2	Ring	33
656.6900000000001	0	n/a	394015	KeyDown	41324	4	Index	33
657.1266666666667	0	n/a	394277	KeyDown	41324	4	Index	33
657.5550000000001	0	n/a	394534	KeyDown	41324	1	Little	33
657.9133333333334	0	n/a	394749	KeyDown	41324	3	Middle	33
658.1083333333333	0	n/a	394866	KeyDown	41324	2	Ring	33
658.4000000000001	0	n/a	395041	KeyDown	41324	4	Index	33
658.8616666666667	0	n/a	395318	KeyDown	41324	4	Index	33
659.2666666666668	0	n/a	395561	KeyDown	41324	1	Little	33
659.7350000000000	0	n/a	395842	KeyDown	41324	3	Middle	33
659.8183333333334	0	n/a	395892	StopPractice	41324	n/a	n/a	33
659.8200000000001	0	n/a	395893	StartRest	XXXXX	n/a	n/a	33
669.8533333333334	0	n/a	401913	StopRest	XXXXX	n/a	n/a	33
669.8550000000000	0	UPPT001	401914	StartPractice	41324	n/a	n/a	34
670.4850000000000	0	n/a	402292	KeyDown	41324	4	Index	34
670.8666666666667	0	n/a	402521	KeyDown	41324	1	Little	34
671.2116666666667	0	n/a	402728	KeyDown	41324	3	Middle	34
671.3966666666668	0	n/a	402839	KeyDown	41324	2	Ring	34
671.6366666666667	0	n/a	402983	KeyDown	41324	4	Index	34
672.0650000000001	0	n/a	403240	KeyDown	41324	4	Index	34
672.4483333333334	0	n/a	403470	KeyDown	41324	1	Little	34
672.7816666666668	0	n/a	403670	KeyDown	41324	3	Middle	34
672.9833333333333	0	n/a	403791	KeyDown	41324	2	Ring	34
673.2516666666667	0	n/a	403952	KeyDown	41324	4	Index	34
673.7233333333334	0	n/a	404235	KeyDown	41324	4	Index	34
674.1366666666667	0	n/a	404483	KeyDown	41324	1	Little	34
674.5450000000001	0	n/a	404728	KeyDown	41324	3	Middle	34
674.7733333333334	0	n/a	404865	KeyDown	41324	2	Ring	34
675.0266666666668	0	n/a	405017	KeyDown	41324	4	Index	34
675.5283333333334	0	n/a	405318	KeyDown	41324	4	Index	34
675.9516666666667	0	n/a	405572	KeyDown	41324	1	Little	34
676.3116666666667	0	n/a	405788	KeyDown	41324	3	Middle	34
676.5366666666667	0	n/a	405923	KeyDown	41324	2	Ring	34
676.8033333333334	0	n/a	406083	KeyDown	41324	4	Index	34
677.2500000000000	0	n/a	406351	KeyDown	41324	4	Index	34
677.6433333333334	0	n/a	406587	KeyDown	41324	1	Little	34
677.9983333333333	0	n/a	406800	KeyDown	41324	3	Middle	34
678.2033333333334	0	n/a	406923	KeyDown	41324	2	Ring	34
678.4483333333334	0	n/a	407070	KeyDown	41324	4	Index	34
678.8866666666667	0	n/a	407333	KeyDown	41324	4	Index	34
679.2833333333334	0	n/a	407571	KeyDown	41324	1	Little	34
679.6550000000001	0	n/a	407794	KeyDown	41324	3	Middle	34
679.7766666666668	0	n/a	407867	KeyDown	41324	2	Ring	34
679.8933333333334	0	n/a	407937	StopPractice	41324	n/a	n/a	34
679.8950000000001	0	n/a	407938	StartRest	XXXXX	n/a	n/a	34
689.9283333333334	0	n/a	413958	StopRest	XXXXX	n/a	n/a	34
689.9300000000001	0	UPPT001	413959	StartPractice	41324	n/a	n/a	35
690.4716666666667	0	n/a	414284	KeyDown	41324	4	Index	35
690.8183333333334	0	n/a	414492	KeyDown	41324	1	Little	35
691.1316666666667	0	n/a	414680	KeyDown	41324	3	Middle	35
691.3433333333334	0	n/a	414807	KeyDown	41324	2	Ring	35
691.5733333333334	0	n/a	414945	KeyDown	41324	4	Index	35
692.0066666666667	0	n/a	415205	KeyDown	41324	4	Index	35
692.3900000000001	0	n/a	415435	KeyDown	41324	1	Little	35
692.7383333333333	0	n/a	415644	KeyDown	41324	3	Middle	35
692.9466666666667	0	n/a	415769	KeyDown	41324	2	Ring	35
693.1983333333334	0	n/a	415920	KeyDown	41324	4	Index	35
693.6166666666667	0	n/a	416171	KeyDown	41324	4	Index	35
694.0333333333334	0	n/a	416421	KeyDown	41324	1	Little	35
694.3950000000001	0	n/a	416638	KeyDown	41324	3	Middle	35
694.6200000000000	0	n/a	416773	KeyDown	41324	2	Ring	35
694.8566666666667	0	n/a	416915	KeyDown	41324	4	Index	35
695.2483333333333	0	n/a	417150	KeyDown	41324	4	Index	35
695.6583333333334	0	n/a	417396	KeyDown	41324	1	Little	35
695.9866666666667	0	n/a	417593	KeyDown	41324	3	Middle	35
696.2516666666667	0	n/a	417752	KeyDown	41324	2	Ring	35
696.5433333333334	0	n/a	417927	KeyDown	41324	4	Index	35
696.9866666666667	0	n/a	418193	KeyDown	41324	4	Index	35
697.4366666666667	0	n/a	418463	KeyDown	41324	1	Little	35
697.7566666666667	0	n/a	418655	KeyDown	41324	3	Middle	35
697.9583333333334	0	n/a	418776	KeyDown	41324	2	Ring	35
698.1983333333334	0	n/a	418920	KeyDown	41324	4	Index	35
698.5916666666667	0	n/a	419156	KeyDown	41324	4	Index	35
698.9833333333333	0	n/a	419391	KeyDown	41324	1	Little	35
699.3700000000000	0	n/a	419623	KeyDown	41324	3	Middle	35
699.5883333333334	0	n/a	419754	KeyDown	41324	2	Ring	35
699.8366666666667	0	n/a	419903	KeyDown	41324	4	Index	35
699.9683333333334	0	n/a	419982	StopPractice	41324	n/a	n/a	35
699.9700000000000	0	n/a	419983	StartRest	XXXXX	n/a	n/a	35
710.0033333333333	0	n/a	426003	StopRest	XXXXX	n/a	n/a	35
710.0050000000000	0	UPPT001	426004	StartPractice	41324	n/a	n/a	36
710.5616666666667	0	n/a	426338	KeyDown	41324	4	Index	36
710.8916666666668	0	n/a	426536	KeyDown	41324	1	Little	36
711.2133333333334	0	n/a	426729	KeyDown	41324	3	Middle	36
711.4200000000001	0	n/a	426853	KeyDown	41324	2	Ring	36
711.6616666666667	0	n/a	426998	KeyDown	41324	4	Index	36
712.1033333333334	0	n/a	427263	KeyDown	41324	4	Index	36
712.4300000000001	0	n/a	427459	KeyDown	41324	1	Little	36
712.8166666666667	0	n/a	427691	KeyDown	41324	3	Middle	36
713.0333333333334	0	n/a	427821	KeyDown	41324	2	Ring	36
713.2733333333334	0	n/a	427965	KeyDown	41324	4	Index	36
713.7100000000000	0	n/a	428227	KeyDown	41324	4	Index	36
714.1316666666667	0	n/a	428480	KeyDown	41324	1	Little	36
714.5116666666667	0	n/a	428708	KeyDown	41324	3	Middle	36
714.6916666666667	0	n/a	428816	KeyDown	41324	2	Ring	36
714.9483333333334	0	n/a	428970	KeyDown	41324	4	Index	36
715.3766666666667	0	n/a	429227	KeyDown	41324	4	Index	36
715.7666666666668	0	n/a	429461	KeyDown	41324	1	Little	36
716.2566666666667	0	n/a	429755	KeyDown	41324	3	Middle	36
716.4616666666667	0	n/a	429878	KeyDown	41324	2	Ring	36
716.7133333333334	0	n/a	430029	KeyDown	41324	4	Index	36
717.1466666666668	0	n/a	430289	KeyDown	41324	4	Index	36
717.5433333333334	0	n/a	430527	KeyDown	41324	1	Little	36
717.9050000000001	0	n/a	430744	KeyDown	41324	3	Middle	36
718.1083333333333	0	n/a	430866	KeyDown	41324	2	Ring	36
718.4333333333334	0	n/a	431061	KeyDown	41324	4	Index	36
718.9016666666668	0	n/a	431342	KeyDown	41324	4	Index	36
719.3233333333334	0	n/a	431595	KeyDown	41324	1	Little	36
719.6316666666667	0	n/a	431780	KeyDown	41324	3	Middle	36
719.8216666666667	0	n/a	431894	KeyDown	41324	2	Ring	36
720.0433333333334	0	n/a	432027	StopPractice	41324	n/a	n/a	36
720.0450000000001	0	n/a	432028	StartRest	XXXXX	n/a	n/a	36
730.0800000000000	0	n/a	438049	StopRest	XXXXX	n/a	n/a	36
