onset	duration	channel	onset_sample_idx	event_type	target_sequence	keypress_id	finger_label	trial_number
5.1166666666667	0	UPPT001	3071	StartPractice	21342	n/a	n/a	1
6.1283333333333	0	n/a	3678	KeyDown	21342	2	Ring	1
6.3850000000000	0	n/a	3832	KeyDown	21342	1	Little	1
6.6533333333333	0	n/a	3993	KeyDown	21342	3	Middle	1
7.2683333333333	0	n/a	4362	KeyDown	21342	4	Index	1
7.4633333333333	0	n/a	4479	KeyDown	21342	2	Ring	1
7.8583333333333	0	n/a	4716	KeyDown	21342	2	Ring	1
8.0283333333333	0	n/a	4818	KeyDown	21342	1	Little	1
8.2233333333333	0	n/a	4935	KeyDown	21342	3	Middle	1
8.4233333333333	0	n/a	5055	KeyDown	21342	4	Index	1
8.5866666666667	0	n/a	5153	KeyDown	21342	2	Ring	1
8.9633333333333	0	n/a	5379	KeyDown	21342	2	Ring	1
9.4983333333333	0	n/a	5700	KeyDown	21342	1	Little	1
9.7283333333333	0	n/a	5838	KeyDown	21342	3	Middle	1
10.1683333333333	0	n/a	6102	KeyDown	21342	4	Index	1
10.2916666666667	0	n/a	6176	KeyDown	21342	2	Ring	1
10.6050000000000	0	n/a	6364	KeyDown	21342	2	Ring	1
10.7883333333333	0	n/a	6474	KeyDown	21342	1	Little	1
11.0483333333333	0	n/a	6630	KeyDown	21342	3	Middle	1
11.3383333333333	0	n/a	6804	KeyDown	21342	4	Index	1
11.4883333333333	0	n/a	6894	KeyDown	21342	2	Ring	1
11.7900000000000	0	n/a	7075	KeyDown	21342	2	Ring	1
11.9300000000000	0	n/a	7159	KeyDown	21342	1	Little	1
12.2833333333333	0	n/a	7371	KeyDown	21342	3	Middle	1
12.7450000000000	0	n/a	7648	KeyDown	21342	4	Index	1
13.0683333333333	0	n/a	7842	KeyDown	21342	2	Ring	1
13.3133333333333	0	n/a	7989	KeyDown	21342	2	Ring	1
13.4516666666667	0	n/a	8072	KeyDown	21342	1	Little	1
13.7083333333333	0	n/a	8226	KeyDown	21342	3	Middle	1
14.4783333333333	0	n/a	8688	KeyDown	21342	4	Index	1
14.7033333333333	0	n/a	8823	KeyDown	21342	2	Ring	1
14.9650000000000	0	n/a	8980	KeyDown	21342	2	Ring	1
15.1550000000000	0	n/a	9094	StopPractice	21342	n/a	n/a	1
15.1566666666667	0	n/a	9095	StartRest	XXXXX	n/a	n/a	1
25.1833333333333	0	n/a	15111	StopRest	XXXXX	n/a	n/a	1
25.1850000000000	0	UPPT001	15112	StartPractice	31214	n/a	n/a	2
26.0750000000000	0	n/a	15646	KeyDown	31214	3	Middle	2
26.4183333333333	0	n/a	15852	KeyDown	31214	1	Little	2
26.7333333333333	0	n/a	16041	KeyDown	31214	2	Ring	2
27.1450000000000	0	n/a	16288	KeyDown	31214	1	Little	2
27.3933333333333	0	n/a	16437	KeyDown	31214	4	Index	2
27.7166666666667	0	n/a	16631	KeyDown	31214	3	Middle	2
27.8383333333333	0	n/a	16704	KeyDown	31214	1	Little	2
28.0583333333333	0	n/a	16836	KeyDown	31214	2	Ring	2
28.3833333333333	0	n/a	17031	KeyDown	31214	1	Little	2
28.6500000000000	0	n/a	17191	KeyDown	31214	4	Index	2
28.9900000000000	0	n/a	17395	KeyDown	31214	3	Middle	2
29.3450000000000	0	n/a	17608	KeyDown	31214	1	Little	2
29.6833333333333	0	n/a	17811	KeyDown	31214	2	Ring	2
29.9716666666667	0	n/a	17984	KeyDown	31214	1	Little	2
30.1650000000000	0	n/a	18100	KeyDown	31214	4	Index	2
30.4883333333333	0	n/a	18294	KeyDown	31214	3	Middle	2
30.6450000000000	0	n/a	18388	KeyDown	31214	1	Little	2
30.9216666666667	0	n/a	18554	KeyDown	31214	2	Ring	2
31.7216666666667	0	n/a	19034	KeyDown	31214	1	Little	2
31.9483333333333	0	n/a	19170	KeyDown	31214	4	Index	2
32.2616666666667	0	n/a	19358	KeyDown	31214	3	Middle	2
32.3733333333333	0	n/a	19425	KeyDown	31214	1	Little	2
32.7683333333333	0	n/a	19662	KeyDown	31214	2	Ring	2
33.2083333333333	0	n/a	19926	KeyDown	31214	1	Little	2
33.3633333333333	0	n/a	20019	KeyDown	31214	4	Index	2
33.7583333333333	0	n/a	20256	KeyDown	31214	3	Middle	2
33.8816666666667	0	n/a	20330	KeyDown	31214	1	Little	2
34.3883333333333	0	n/a	20634	KeyDown	31214	2	Ring	2
34.9566666666667	0	n/a	20975	KeyDown	31214	1	Little	2
35.1916666666667	0	n/a	21116	KeyDown	31214	4	Index	2
35.2233333333333	0	n/a	21135	StopPractice	31214	n/a	n/a	2
35.2250000000000	0	n/a	21136	StartRest	XXXXX	n/a	n/a	2
45.2583333333333	0	n/a	27156	StopRest	XXXXX	n/a	n/a	2
45.2600000000000	0	UPPT001	27157	StartPractice	12434	n/a	n/a	3
46.1016666666667	0	n/a	27662	KeyDown	12434	1	Little	3
46.3316666666667	0	n/a	27800	KeyDown	12434	2	Ring	3
47.1083333333333	0	n/a	28266	KeyDown	12434	4	Index	3
47.4416666666667	0	n/a	28466	KeyDown	12434	3	Middle	3
47.6300000000000	0	n/a	28579	KeyDown	12434	4	Index	3
47.8866666666667	0	n/a	28733	KeyDown	12434	1	Little	3
48.0800000000000	0	n/a	28849	KeyDown	12434	2	Ring	3
48.2666666666667	0	n/a	28961	KeyDown	12434	4	Index	3
48.4416666666667	0	n/a	29066	KeyDown	12434	3	Middle	3
48.6450000000000	0	n/a	29188	KeyDown	12434	4	Index	3
49.0383333333333	0	n/a	29424	KeyDown	12434	1	Little	3
49.2733333333333	0	n/a	29565	KeyDown	12434	2	Ring	3
49.4433333333333	0	n/a	29667	KeyDown	12434	4	Index	3
49.6016666666667	0	n/a	29762	KeyDown	12434	3	Middle	3
49.8800000000000	0	n/a	29929	KeyDown	12434	4	Index	3
50.2483333333333	0	n/a	30150	KeyDown	12434	1	Little	3
50.3866666666667	0	n/a	30233	KeyDown	12434	2	Ring	3
50.5633333333333	0	n/a	30339	KeyDown	12434	4	Index	3
50.7233333333333	0	n/a	30435	KeyDown	12434	3	Middle	3
50.8683333333333	0	n/a	30522	KeyDown	12434	4	Index	3
51.1483333333333	0	n/a	30690	KeyDown	12434	1	Little	3
51.3916666666667	0	n/a	30836	KeyDown	12434	2	Ring	3
51.5533333333333	0	n/a	30933	KeyDown	12434	4	Index	3
51.9900000000000	0	n/a	31195	KeyDown	12434	3	Middle	3
52.3700000000000	0	n/a	31423	KeyDown	12434	4	Index	3
52.5850000000000	0	n/a	31552	KeyDown	12434	1	Little	3
52.8200000000000	0	n/a	31693	KeyDown	12434	2	Ring	3
52.9833333333333	0	n/a	31791	KeyDown	12434	4	Index	3
53.1700000000000	0	n/a	31903	KeyDown	12434	3	Middle	3
53.3666666666667	0	n/a	32021	KeyDown	12434	4	Index	3
53.6366666666667	0	n/a	32183	KeyDown	12434	1	Little	3
53.8483333333333	0	n/a	32310	KeyDown	12434	2	Ring	3
54.2866666666667	0	n/a	32573	KeyDown	12434	4	Index	3
54.4083333333333	0	n/a	32646	KeyDown	12434	3	Middle	3
54.5566666666667	0	n/a	32735	KeyDown	12434	4	Index	3
54.9016666666667	0	n/a	32942	KeyDown	12434	1	Little	3
55.0633333333333	0	n/a	33039	KeyDown	12434	2	Ring	3
55.2983333333333	0	n/a	33180	StopPractice	12434	n/a	n/a	3
55.3000000000000	0	n/a	33181	StartRest	XXXXX	n/a	n/a	3
65.3333333333333	0	n/a	39201	StopRest	XXXXX	n/a	n/a	3
65.3350000000000	0	UPPT001	39202	StartPractice	41321	n/a	n/a	4
66.1933333333333	0	n/a	39717	KeyDown	41321	4	Index	4
66.4133333333333	0	n/a	39849	KeyDown	41321	1	Little	4
66.6000000000000	0	n/a	39961	KeyDown	41321	3	Middle	4
66.7383333333333	0	n/a	40044	KeyDown	41321	2	Ring	4
67.0500000000000	0	n/a	40231	KeyDown	41321	1	Little	4
67.2300000000000	0	n/a	40339	KeyDown	41321	4	Index	4
67.3916666666667	0	n/a	40436	KeyDown	41321	1	Little	4
67.6716666666667	0	n/a	40604	KeyDown	41321	3	Middle	4
67.8183333333333	0	n/a	40692	KeyDown	41321	2	Ring	4
67.9833333333333	0	n/a	40791	KeyDown	41321	1	Little	4
68.3233333333333	0	n/a	40995	KeyDown	41321	1	Little	4
68.4366666666667	0	n/a	41063	KeyDown	41321	4	Index	4
69.2816666666667	0	n/a	41570	KeyDown	41321	1	Little	4
69.6400000000000	0	n/a	41785	KeyDown	41321	3	Middle	4
69.8650000000000	0	n/a	41920	KeyDown	41321	2	Ring	4
70.0116666666667	0	n/a	42008	KeyDown	41321	1	Little	4
70.3050000000000	0	n/a	42184	KeyDown	41321	4	Index	4
70.6333333333333	0	n/a	42381	KeyDown	41321	1	Little	4
71.0033333333333	0	n/a	42603	KeyDown	41321	3	Middle	4
71.2383333333333	0	n/a	42744	KeyDown	41321	2	Ring	4
71.3666666666667	0	n/a	42821	KeyDown	41321	1	Little	4
71.7166666666667	0	n/a	43031	KeyDown	41321	4	Index	4
71.8416666666667	0	n/a	43106	KeyDown	41321	1	Little	4
72.1700000000000	0	n/a	43303	KeyDown	41321	3	Middle	4
72.3383333333333	0	n/a	43404	KeyDown	41321	2	Ring	4
72.4233333333333	0	n/a	43455	KeyDown	41321	1	Little	4
72.8616666666667	0	n/a	43718	KeyDown	41321	4	Index	4
73.0416666666667	0	n/a	43826	KeyDown	41321	1	Little	4
73.3883333333333	0	n/a	44034	KeyDown	41321	3	Middle	4
73.5033333333333	0	n/a	44103	KeyDown	41321	2	Ring	4
73.6183333333333	0	n/a	44172	KeyDown	41321	1	Little	4
73.8933333333333	0	n/a	44337	KeyDown	41321	4	Index	4
73.9983333333333	0	n/a	44400	KeyDown	41321	1	Little	4
74.3516666666667	0	n/a	44612	KeyDown	41321	3	Middle	4
74.4050000000000	0	n/a	44644	KeyDown	41321	2	Ring	4
74.5433333333333	0	n/a	44727	KeyDown	41321	1	Little	4
74.9266666666667	0	n/a	44957	KeyDown	41321	4	Index	4
75.0500000000000	0	n/a	45031	KeyDown	41321	1	Little	4
75.3483333333333	0	n/a	45210	KeyDown	41321	3	Middle	4
75.3733333333333	0	n/a	45225	StopPractice	41321	n/a	n/a	4
75.3750000000000	0	n/a	45226	StartRest	XXXXX	n/a	n/a	4
85.4083333333333	0	n/a	51246	StopRest	XXXXX	n/a	n/a	4
85.4100000000000	0	UPPT001	51247	StartPractice	23241	n/a	n/a	5
86.2866666666667	0	n/a	51773	KeyDown	23241	2	Ring	5
86.7783333333333	0	n/a	52068	KeyDown	23241	3	Middle	5
87.0466666666667	0	n/a	52229	KeyDown	23241	2	Ring	5
87.3683333333333	0	n/a	52422	KeyDown	23241	4	Index	5
87.4833333333333	0	n/a	52491	KeyDown	23241	1	Little	5
87.8633333333333	0	n/a	52719	KeyDown	23241	2	Ring	5
88.0983333333333	0	n/a	52860	KeyDown	23241	3	Middle	5
88.3250000000000	0	n/a	52996	KeyDown	23241	2	Ring	5
88.6383333333333	0	n/a	53184	KeyDown	23241	4	Index	5
88.7566666666667	0	n/a	53255	KeyDown	23241	1	Little	5
88.9983333333333	0	n/a	53400	KeyDown	23241	2	Ring	5
89.1983333333333	0	n/a	53520	KeyDown	23241	3	Middle	5
89.7083333333333	0	n/a	53826	KeyDown	23241	4	Index	5
89.9050000000000	0	n/a	53944	KeyDown	23241	1	Little	5
90.1633333333333	0	n/a	54099	KeyDown	23241	2	Ring	5
90.3533333333333	0	n/a	54213	KeyDown	23241	3	Middle	5
90.5016666666667	0	n/a	54302	KeyDown	23241	2	Ring	5
90.7833333333333	0	n/a	54471	KeyDown	23241	4	Index	5
90.9416666666667	0	n/a	54566	KeyDown	23241	1	Little	5
91.1700000000000	0	n/a	54703	KeyDown	23241	2	Ring	5
91.3650000000000	0	n/a	54820	KeyDown	23241	3	Middle	5
91.5350000000000	0	n/a	54922	KeyDown	23241	2	Ring	5
91.9000000000000	0	n/a	55141	KeyDown	23241	4	Index	5
92.0666666666667	0	n/a	55241	KeyDown	23241	1	Little	5
92.3116666666667	0	n/a	55388	KeyDown	23241	2	Ring	5
92.7283333333333	0	n/a	55638	KeyDown	23241	3	Middle	5
92.8416666666667	0	n/a	55706	KeyDown	23241	2	Ring	5
93.2016666666667	0	n/a	55922	KeyDown	23241	4	Index	5
93.3366666666667	0	n/a	56003	KeyDown	23241	1	Little	5
93.5866666666667	0	n/a	56153	KeyDown	23241	2	Ring	5
93.7716666666667	0	n/a	56264	KeyDown	23241	3	Middle	5
94.2983333333333	0	n/a	56580	KeyDown	23241	4	Index	5
94.4450000000000	0	n/a	56668	KeyDown	23241	1	Little	5
94.7016666666667	0	n/a	56822	KeyDown	23241	2	Ring	5
94.9016666666667	0	n/a	56942	KeyDown	23241	3	Middle	5
95.0216666666667	0	n/a	57014	KeyDown	23241	2	Ring	5
95.3250000000000	0	n/a	57196	KeyDown	23241	4	Index	5
95.4483333333333	0	n/a	57270	StopPractice	23241	n/a	n/a	5
95.4500000000000	0	n/a	57271	StartRest	XXXXX	n/a	n/a	5
105.4833333333333	0	n/a	63291	StopRest	XXXXX	n/a	n/a	5
105.4850000000000	0	UPPT001	63292	StartPractice	31432	n/a	n/a	6
106.3700000000000	0	n/a	63823	KeyDown	31432	3	Middle	6
107.1000000000000	0	n/a	64261	KeyDown	31432	1	Little	6
107.4450000000000	0	n/a	64468	KeyDown	31432	4	Index	6
107.6983333333333	0	n/a	64620	KeyDown	31432	3	Middle	6
107.8383333333333	0	n/a	64704	KeyDown	31432	2	Ring	6
108.5050000000000	0	n/a	65104	KeyDown	31432	3	Middle	6
108.7283333333333	0	n/a	65238	KeyDown	31432	1	Little	6
109.0316666666667	0	n/a	65420	KeyDown	31432	4	Index	6
109.2333333333333	0	n/a	65541	KeyDown	31432	3	Middle	6
109.5550000000000	0	n/a	65734	KeyDown	31432	2	Ring	6
110.0083333333333	0	n/a	66006	KeyDown	31432	3	Middle	6
110.2883333333333	0	n/a	66174	KeyDown	31432	1	Little	6
110.7566666666667	0	n/a	66455	KeyDown	31432	4	Index	6
110.8883333333333	0	n/a	66534	KeyDown	31432	3	Middle	6
111.0200000000000	0	n/a	66613	KeyDown	31432	2	Ring	6
111.5550000000000	0	n/a	66934	KeyDown	31432	3	Middle	6
111.7150000000000	0	n/a	67030	KeyDown	31432	1	Little	6
111.9483333333333	0	n/a	67170	KeyDown	31432	4	Index	6
112.0833333333333	0	n/a	67251	KeyDown	31432	3	Middle	6
112.2733333333333	0	n/a	67365	KeyDown	31432	2	Ring	6
112.5966666666667	0	n/a	67559	KeyDown	31432	3	Middle	6
112.7583333333333	0	n/a	67656	KeyDown	31432	1	Little	6
113.0616666666667	0	n/a	67838	KeyDown	31432	4	Index	6
113.1816666666667	0	n/a	67910	KeyDown	31432	3	Middle	6
113.3550000000000	0	n/a	68014	KeyDown	31432	2	Ring	6
113.8216666666667	0	n/a	68294	KeyDown	31432	3	Middle	6
113.9866666666667	0	n/a	68393	KeyDown	31432	1	Little	6
114.3916666666667	0	n/a	68636	KeyDown	31432	4	Index	6
114.6050000000000	0	n/a	68764	KeyDown	31432	3	Middle	6
114.7883333333333	0	n/a	68874	KeyDown	31432	2	Ring	6
115.2516666666667	0	n/a	69152	KeyDown	31432	3	Middle	6
115.3916666666667	0	n/a	69236	KeyDown	31432	1	Little	6
115.5233333333333	0	n/a	69315	StopPractice	31432	n/a	n/a	6
115.5250000000000	0	n/a	69316	StartRest	XXXXX	n/a	n/a	6
125.5583333333333	0	n/a	75336	StopRest	XXXXX	n/a	n/a	6
125.5600000000000	0	UPPT001	75337	StartPractice	23134	n/a	n/a	7
126.4533333333333	0	n/a	75873	KeyDown	23134	2	Ring	7
126.6816666666667	0	n/a	76010	KeyDown	23134	3	Middle	7
127.3083333333333	0	n/a	76386	KeyDown	23134	1	Little	7
127.8116666666667	0	n/a	76688	KeyDown	23134	3	Middle	7
128.1966666666667	0	n/a	76919	KeyDown	23134	4	Index	7
128.5566666666667	0	n/a	77135	KeyDown	23134	2	Ring	7
129.0450000000000	0	n/a	77428	KeyDown	23134	3	Middle	7
129.4433333333333	0	n/a	77667	KeyDown	23134	1	Little	7
129.7066666666667	0	n/a	77825	KeyDown	23134	3	Middle	7
129.9216666666667	0	n/a	77954	KeyDown	23134	4	Index	7
130.3933333333333	0	n/a	78237	KeyDown	23134	2	Ring	7
130.6283333333333	0	n/a	78378	KeyDown	23134	3	Middle	7
131.2100000000000	0	n/a	78727	KeyDown	23134	1	Little	7
131.4933333333333	0	n/a	78897	KeyDown	23134	3	Middle	7
131.7216666666667	0	n/a	79034	KeyDown	23134	4	Index	7
132.0783333333333	0	n/a	79248	KeyDown	23134	2	Ring	7
132.3866666666667	0	n/a	79433	KeyDown	23134	3	Middle	7
132.6033333333334	0	n/a	79563	KeyDown	23134	1	Little	7
132.9200000000000	0	n/a	79753	KeyDown	23134	3	Middle	7
133.1150000000000	0	n/a	79870	KeyDown	23134	4	Index	7
133.4533333333333	0	n/a	80073	KeyDown	23134	2	Ring	7
133.6933333333333	0	n/a	80217	KeyDown	23134	3	Middle	7
133.9366666666667	0	n/a	80363	KeyDown	23134	1	Little	7
134.2116666666667	0	n/a	80528	KeyDown	23134	3	Middle	7
134.4116666666667	0	n/a	80648	KeyDown	23134	4	Index	7
134.7183333333333	0	n/a	80832	KeyDown	23134	3	Middle	7
135.0266666666667	0	n/a	81017	KeyDown	23134	2	Ring	7
135.3733333333333	0	n/a	81225	KeyDown	23134	3	Middle	7
135.5983333333333	0	n/a	81360	StopPractice	23134	n/a	n/a	7
135.6000000000000	0	n/a	81361	StartRest	XXXXX	n/a	n/a	7
145.6316666666667	0	n/a	87380	StopRest	XXXXX	n/a	n/a	7
145.6333333333334	0	UPPT001	87381	StartPractice	12134	n/a	n/a	8
146.3400000000000	0	n/a	87805	KeyDown	12134	1	Little	8
146.7466666666667	0	n/a	88049	KeyDown	12134	2	Ring	8
147.1966666666667	0	n/a	88319	KeyDown	12134	1	Little	8
147.4616666666667	0	n/a	88478	KeyDown	12134	3	Middle	8
147.7116666666667	0	n/a	88628	KeyDown	12134	4	Index	8
147.8816666666667	0	n/a	88730	KeyDown	12134	1	Little	8
148.0416666666667	0	n/a	88826	KeyDown	12134	2	Ring	8
148.2216666666667	0	n/a	88934	KeyDown	12134	1	Little	8
148.8116666666667	0	n/a	89288	KeyDown	12134	3	Middle	8
148.9833333333333	0	n/a	89391	KeyDown	12134	4	Index	8
149.2000000000000	0	n/a	89521	KeyDown	12134	1	Little	8
149.4166666666667	0	n/a	89651	KeyDown	12134	2	Ring	8
149.7900000000000	0	n/a	89875	KeyDown	12134	1	Little	8
150.1200000000000	0	n/a	90073	KeyDown	12134	3	Middle	8
150.2566666666667	0	n/a	90155	KeyDown	12134	4	Index	8
150.6233333333333	0	n/a	90375	KeyDown	12134	1	Little	8
150.8016666666667	0	n/a	90482	KeyDown	12134	2	Ring	8
151.0150000000000	0	n/a	90610	KeyDown	12134	1	Little	8
151.4616666666667	0	n/a	90878	KeyDown	12134	3	Middle	8
151.6600000000000	0	n/a	90997	KeyDown	12134	4	Index	8
151.8266666666667	0	n/a	91097	KeyDown	12134	1	Little	8
152.0400000000000	0	n/a	91225	KeyDown	12134	2	Ring	8
152.2550000000000	0	n/a	91354	KeyDown	12134	1	Little	8
152.6150000000000	0	n/a	91570	KeyDown	12134	3	Middle	8
152.7816666666667	0	n/a	91670	KeyDown	12134	4	Index	8
153.0400000000000	0	n/a	91825	KeyDown	12134	1	Little	8
153.2750000000000	0	n/a	91966	KeyDown	12134	2	Ring	8
153.4550000000000	0	n/a	92074	KeyDown	12134	1	Little	8
153.6200000000000	0	n/a	92173	KeyDown	12134	2	Ring	8
153.8850000000000	0	n/a	92332	KeyDown	12134	3	Middle	8
154.0400000000000	0	n/a	92425	KeyDown	12134	4	Index	8
154.3000000000000	0	n/a	92581	KeyDown	12134	1	Little	8
154.4950000000000	0	n/a	92698	KeyDown	12134	2	Ring	8
154.6650000000000	0	n/a	92800	KeyDown	12134	1	Little	8
155.0566666666667	0	n/a	93035	KeyDown	12134	3	Middle	8
155.1916666666667	0	n/a	93116	KeyDown	12134	4	Index	8
155.4866666666667	0	n/a	93293	KeyDown	12134	1	Little	8
155.6716666666667	0	n/a	93404	StopPractice	12134	n/a	n/a	8
155.6733333333333	0	n/a	93405	StartRest	XXXXX	n/a	n/a	8
165.7083333333333	0	n/a	99426	StopRest	XXXXX	n/a	n/a	8
165.7100000000000	0	UPPT001	99427	StartPractice	43241	n/a	n/a	9
167.0416666666667	0	n/a	100226	KeyDown	43241	4	Index	9
167.3516666666667	0	n/a	100412	KeyDown	43241	3	Middle	9
167.7000000000000	0	n/a	100621	KeyDown	43241	2	Ring	9
167.9766666666667	0	n/a	100787	KeyDown	43241	4	Index	9
168.1616666666667	0	n/a	100898	KeyDown	43241	1	Little	9
168.4866666666667	0	n/a	101093	KeyDown	43241	4	Index	9
168.6183333333333	0	n/a	101172	KeyDown	43241	3	Middle	9
168.8650000000000	0	n/a	101320	KeyDown	43241	2	Ring	9
169.0983333333334	0	n/a	101460	KeyDown	43241	4	Index	9
169.2416666666667	0	n/a	101546	KeyDown	43241	1	Little	9
169.5466666666667	0	n/a	101729	KeyDown	43241	4	Index	9
170.4650000000000	0	n/a	102280	KeyDown	43241	3	Middle	9
170.6433333333333	0	n/a	102387	KeyDown	43241	2	Ring	9
170.8916666666667	0	n/a	102536	KeyDown	43241	1	Little	9
171.9250000000000	0	n/a	103156	KeyDown	43241	4	Index	9
172.0466666666667	0	n/a	103229	KeyDown	43241	1	Little	9
172.4200000000000	0	n/a	103453	KeyDown	43241	4	Index	9
172.5566666666667	0	n/a	103535	KeyDown	43241	3	Middle	9
172.6566666666667	0	n/a	103595	KeyDown	43241	2	Ring	9
172.8716666666667	0	n/a	103724	KeyDown	43241	4	Index	9
173.0116666666667	0	n/a	103808	KeyDown	43241	1	Little	9
173.2300000000000	0	n/a	103939	KeyDown	43241	4	Index	9
173.3866666666667	0	n/a	104033	KeyDown	43241	3	Middle	9
173.4516666666667	0	n/a	104072	KeyDown	43241	2	Ring	9
173.9716666666667	0	n/a	104384	KeyDown	43241	1	Little	9
175.1050000000000	0	n/a	105064	KeyDown	43241	4	Index	9
175.1950000000000	0	n/a	105118	KeyDown	43241	3	Middle	9
175.3383333333333	0	n/a	105204	KeyDown	43241	2	Ring	9
175.5166666666667	0	n/a	105311	KeyDown	43241	4	Index	9
175.7483333333333	0	n/a	105450	StopPractice	43241	n/a	n/a	9
175.7500000000000	0	n/a	105451	StartRest	XXXXX	n/a	n/a	9
185.7850000000000	0	n/a	111472	StopRest	XXXXX	n/a	n/a	9
