onset	duration	channel	onset_sample_idx	event_type	target_sequence	keypress_id	finger_label	trial_number
17.7800000000000	0	UPPT001	10669	StartPractice	41324	n/a	n/a	1
18.5650000000000	0	n/a	11140	KeyDown	41324	4	Index	1
18.8150000000000	0	n/a	11290	KeyDown	41324	1	Little	1
19.8083333333333	0	n/a	11886	KeyDown	41324	3	Middle	1
20.1383333333333	0	n/a	12084	KeyDown	41324	2	Ring	1
20.3633333333333	0	n/a	12219	KeyDown	41324	4	Index	1
20.6633333333333	0	n/a	12399	KeyDown	41324	4	Index	1
20.8483333333333	0	n/a	12510	KeyDown	41324	1	Little	1
21.1100000000000	0	n/a	12667	KeyDown	41324	3	Middle	1
21.2683333333333	0	n/a	12762	KeyDown	41324	2	Ring	1
21.4333333333333	0	n/a	12861	KeyDown	41324	4	Index	1
21.6450000000000	0	n/a	12988	KeyDown	41324	4	Index	1
22.1516666666667	0	n/a	13292	KeyDown	41324	1	Little	1
22.3933333333333	0	n/a	13437	KeyDown	41324	3	Middle	1
22.5683333333333	0	n/a	13542	KeyDown	41324	2	Ring	1
22.6750000000000	0	n/a	13606	KeyDown	41324	4	Index	1
22.9033333333333	0	n/a	13743	KeyDown	41324	4	Index	1
23.1050000000000	0	n/a	13864	KeyDown	41324	1	Little	1
23.4083333333333	0	n/a	14046	KeyDown	41324	3	Middle	1
23.6133333333333	0	n/a	14169	KeyDown	41324	2	Ring	1
23.8466666666667	0	n/a	14309	KeyDown	41324	4	Index	1
24.0833333333333	0	n/a	14451	KeyDown	41324	4	Index	1
24.2616666666667	0	n/a	14558	KeyDown	41324	1	Little	1
24.4683333333333	0	n/a	14682	KeyDown	41324	3	Middle	1
24.6983333333333	0	n/a	14820	KeyDown	41324	2	Ring	1
24.8833333333333	0	n/a	14931	KeyDown	41324	4	Index	1
25.1050000000000	0	n/a	15064	KeyDown	41324	4	Index	1
25.2983333333333	0	n/a	15180	KeyDown	41324	1	Little	1
25.5116666666667	0	n/a	15308	KeyDown	41324	3	Middle	1
25.7566666666667	0	n/a	15455	KeyDown	41324	2	Ring	1
25.9200000000000	0	n/a	15553	KeyDown	41324	4	Index	1
26.1283333333333	0	n/a	15678	KeyDown	41324	4	Index	1
26.3233333333333	0	n/a	15795	KeyDown	41324	1	Little	1
26.5933333333333	0	n/a	15957	KeyDown	41324	3	Middle	1
26.7866666666667	0	n/a	16073	KeyDown	41324	2	Ring	1
26.9283333333333	0	n/a	16158	KeyDown	41324	4	Index	1
27.1583333333333	0	n/a	16296	KeyDown	41324	4	Index	1
27.3416666666667	0	n/a	16406	KeyDown	41324	1	Little	1
27.5666666666667	0	n/a	16541	KeyDown	41324	3	Middle	1
27.7483333333333	0	n/a	16650	KeyDown	41324	2	Ring	1
27.8183333333333	0	n/a	16692	StopPractice	41324	n/a	n/a	1
27.8200000000000	0	n/a	16693	StartRest	XXXXX	n/a	n/a	1
37.8550000000000	0	n/a	22714	StopRest	XXXXX	n/a	n/a	1
37.8566666666667	0	UPPT001	22715	StartPractice	41324	n/a	n/a	2
38.3100000000000	0	n/a	22987	KeyDown	41324	4	Index	2
38.4750000000000	0	n/a	23086	KeyDown	41324	1	Little	2
38.6650000000000	0	n/a	23200	KeyDown	41324	3	Middle	2
38.8150000000000	0	n/a	23290	KeyDown	41324	2	Ring	2
38.9716666666667	0	n/a	23384	KeyDown	41324	4	Index	2
39.1633333333333	0	n/a	23499	KeyDown	41324	4	Index	2
39.3216666666667	0	n/a	23594	KeyDown	41324	1	Little	2
39.4900000000000	0	n/a	23695	KeyDown	41324	3	Middle	2
39.6600000000000	0	n/a	23797	KeyDown	41324	2	Ring	2
39.7983333333333	0	n/a	23880	KeyDown	41324	4	Index	2
39.9850000000000	0	n/a	23992	KeyDown	41324	4	Index	2
40.1083333333333	0	n/a	24066	KeyDown	41324	1	Little	2
40.3066666666667	0	n/a	24185	KeyDown	41324	3	Middle	2
40.5033333333333	0	n/a	24303	KeyDown	41324	2	Ring	2
40.6450000000000	0	n/a	24388	KeyDown	41324	4	Index	2
40.8433333333333	0	n/a	24507	KeyDown	41324	4	Index	2
40.9833333333333	0	n/a	24591	KeyDown	41324	1	Little	2
41.1900000000000	0	n/a	24715	KeyDown	41324	3	Middle	2
41.5166666666667	0	n/a	24911	KeyDown	41324	2	Ring	2
41.6683333333333	0	n/a	25002	KeyDown	41324	4	Index	2
41.8933333333333	0	n/a	25137	KeyDown	41324	4	Index	2
42.0333333333333	0	n/a	25221	KeyDown	41324	1	Little	2
42.2150000000000	0	n/a	25330	KeyDown	41324	3	Middle	2
42.4666666666667	0	n/a	25481	KeyDown	41324	2	Ring	2
42.6150000000000	0	n/a	25570	KeyDown	41324	4	Index	2
42.9233333333333	0	n/a	25755	KeyDown	41324	4	Index	2
43.1483333333333	0	n/a	25890	KeyDown	41324	1	Little	2
43.3100000000000	0	n/a	25987	KeyDown	41324	3	Middle	2
43.4650000000000	0	n/a	26080	KeyDown	41324	2	Ring	2
43.5816666666667	0	n/a	26150	KeyDown	41324	4	Index	2
44.0283333333333	0	n/a	26418	KeyDown	41324	4	Index	2
44.2150000000000	0	n/a	26530	KeyDown	41324	1	Little	2
44.5350000000000	0	n/a	26722	KeyDown	41324	3	Middle	2
44.8183333333333	0	n/a	26892	KeyDown	41324	2	Ring	2
44.9300000000000	0	n/a	26959	KeyDown	41324	4	Index	2
45.1566666666667	0	n/a	27095	KeyDown	41324	4	Index	2
45.3166666666667	0	n/a	27191	KeyDown	41324	1	Little	2
45.5300000000000	0	n/a	27319	KeyDown	41324	3	Middle	2
45.6433333333333	0	n/a	27387	KeyDown	41324	2	Ring	2
45.8150000000000	0	n/a	27490	KeyDown	41324	4	Index	2
46.0866666666667	0	n/a	27653	KeyDown	41324	4	Index	2
46.2600000000000	0	n/a	27757	KeyDown	41324	1	Little	2
46.4633333333333	0	n/a	27879	KeyDown	41324	3	Middle	2
46.6216666666667	0	n/a	27974	KeyDown	41324	2	Ring	2
46.7900000000000	0	n/a	28075	KeyDown	41324	4	Index	2
47.0283333333333	0	n/a	28218	KeyDown	41324	4	Index	2
47.1933333333333	0	n/a	28317	KeyDown	41324	1	Little	2
47.4200000000000	0	n/a	28453	KeyDown	41324	2	Ring	2
47.5350000000000	0	n/a	28522	KeyDown	41324	3	Middle	2
47.7633333333333	0	n/a	28659	KeyDown	41324	2	Ring	2
47.8500000000000	0	n/a	28711	KeyDown	41324	4	Index	2
47.8950000000000	0	n/a	28738	StopPractice	41324	n/a	n/a	2
47.8966666666667	0	n/a	28739	StartRest	XXXXX	n/a	n/a	2
57.9300000000000	0	n/a	34759	StopRest	XXXXX	n/a	n/a	2
57.9316666666667	0	UPPT001	34760	StartPractice	41324	n/a	n/a	3
58.4050000000000	0	n/a	35044	KeyDown	41324	4	Index	3
58.5816666666667	0	n/a	35150	KeyDown	41324	4	Index	3
59.1200000000000	0	n/a	35473	KeyDown	41324	4	Index	3
59.3400000000000	0	n/a	35605	KeyDown	41324	1	Little	3
59.6366666666667	0	n/a	35783	KeyDown	41324	3	Middle	3
59.8766666666667	0	n/a	35927	KeyDown	41324	2	Ring	3
60.0316666666667	0	n/a	36020	KeyDown	41324	4	Index	3
60.2083333333333	0	n/a	36126	KeyDown	41324	4	Index	3
60.3933333333333	0	n/a	36237	KeyDown	41324	1	Little	3
60.5933333333333	0	n/a	36357	KeyDown	41324	3	Middle	3
60.7700000000000	0	n/a	36463	KeyDown	41324	2	Ring	3
60.8983333333333	0	n/a	36540	KeyDown	41324	4	Index	3
61.0850000000000	0	n/a	36652	KeyDown	41324	4	Index	3
61.2183333333333	0	n/a	36732	KeyDown	41324	1	Little	3
61.4916666666667	0	n/a	36896	KeyDown	41324	3	Middle	3
61.7166666666667	0	n/a	37031	KeyDown	41324	2	Ring	3
61.8816666666667	0	n/a	37130	KeyDown	41324	4	Index	3
62.0583333333333	0	n/a	37236	KeyDown	41324	4	Index	3
62.3066666666667	0	n/a	37385	KeyDown	41324	1	Little	3
62.5250000000000	0	n/a	37516	KeyDown	41324	3	Middle	3
62.7683333333333	0	n/a	37662	KeyDown	41324	2	Ring	3
62.9516666666667	0	n/a	37772	KeyDown	41324	4	Index	3
63.1483333333333	0	n/a	37890	KeyDown	41324	4	Index	3
63.2883333333333	0	n/a	37974	KeyDown	41324	1	Little	3
63.7383333333333	0	n/a	38244	KeyDown	41324	2	Ring	3
64.5000000000000	0	n/a	38701	KeyDown	41324	4	Index	3
64.6666666666667	0	n/a	38801	KeyDown	41324	1	Little	3
64.8450000000000	0	n/a	38908	KeyDown	41324	3	Middle	3
65.0133333333333	0	n/a	39009	KeyDown	41324	2	Ring	3
65.1533333333333	0	n/a	39093	KeyDown	41324	4	Index	3
65.3850000000000	0	n/a	39232	KeyDown	41324	4	Index	3
65.5500000000000	0	n/a	39331	KeyDown	41324	1	Little	3
65.7650000000000	0	n/a	39460	KeyDown	41324	3	Middle	3
66.0000000000000	0	n/a	39601	KeyDown	41324	2	Ring	3
66.1950000000000	0	n/a	39718	KeyDown	41324	4	Index	3
66.3800000000000	0	n/a	39829	KeyDown	41324	4	Index	3
66.5533333333333	0	n/a	39933	KeyDown	41324	1	Little	3
66.7700000000000	0	n/a	40063	KeyDown	41324	3	Middle	3
67.2616666666667	0	n/a	40358	KeyDown	41324	2	Ring	3
67.4450000000000	0	n/a	40468	KeyDown	41324	4	Index	3
67.6500000000000	0	n/a	40591	KeyDown	41324	4	Index	3
67.8000000000000	0	n/a	40681	KeyDown	41324	1	Little	3
67.9700000000000	0	n/a	40783	StopPractice	41324	n/a	n/a	3
67.9716666666667	0	n/a	40784	StartRest	XXXXX	n/a	n/a	3
78.0050000000000	0	n/a	46804	StopRest	XXXXX	n/a	n/a	3
78.0066666666667	0	UPPT001	46805	StartPractice	41324	n/a	n/a	4
78.3733333333333	0	n/a	47025	KeyDown	41324	4	Index	4
78.5450000000000	0	n/a	47128	KeyDown	41324	1	Little	4
78.8050000000000	0	n/a	47284	KeyDown	41324	3	Middle	4
78.9600000000000	0	n/a	47377	KeyDown	41324	2	Ring	4
79.1150000000000	0	n/a	47470	KeyDown	41324	4	Index	4
79.2883333333333	0	n/a	47574	KeyDown	41324	4	Index	4
79.4533333333333	0	n/a	47673	KeyDown	41324	1	Little	4
79.7100000000000	0	n/a	47827	KeyDown	41324	3	Middle	4
79.8616666666667	0	n/a	47918	KeyDown	41324	2	Ring	4
80.0066666666667	0	n/a	48005	KeyDown	41324	4	Index	4
80.1783333333333	0	n/a	48108	KeyDown	41324	4	Index	4
80.3583333333333	0	n/a	48216	KeyDown	41324	1	Little	4
80.5933333333333	0	n/a	48357	KeyDown	41324	3	Middle	4
80.7433333333333	0	n/a	48447	KeyDown	41324	2	Ring	4
80.8833333333333	0	n/a	48531	KeyDown	41324	4	Index	4
81.0833333333333	0	n/a	48651	KeyDown	41324	4	Index	4
81.2700000000000	0	n/a	48763	KeyDown	41324	1	Little	4
81.5050000000000	0	n/a	48904	KeyDown	41324	3	Middle	4
81.6650000000000	0	n/a	49000	KeyDown	41324	2	Ring	4
81.7883333333333	0	n/a	49074	KeyDown	41324	4	Index	4
81.9766666666667	0	n/a	49187	KeyDown	41324	4	Index	4
82.1200000000000	0	n/a	49273	KeyDown	41324	1	Little	4
82.4200000000000	0	n/a	49453	KeyDown	41324	3	Middle	4
82.5383333333333	0	n/a	49524	KeyDown	41324	3	Middle	4
82.7033333333333	0	n/a	49623	KeyDown	41324	2	Ring	4
82.7900000000000	0	n/a	49675	KeyDown	41324	4	Index	4
83.0100000000000	0	n/a	49807	KeyDown	41324	4	Index	4
83.1550000000000	0	n/a	49894	KeyDown	41324	1	Little	4
83.4400000000000	0	n/a	50065	KeyDown	41324	3	Middle	4
83.6200000000000	0	n/a	50173	KeyDown	41324	2	Ring	4
83.7050000000000	0	n/a	50224	KeyDown	41324	4	Index	4
83.9100000000000	0	n/a	50347	KeyDown	41324	4	Index	4
84.0800000000000	0	n/a	50449	KeyDown	41324	1	Little	4
84.2800000000000	0	n/a	50569	KeyDown	41324	3	Middle	4
84.5233333333333	0	n/a	50715	KeyDown	41324	2	Ring	4
84.6766666666667	0	n/a	50807	KeyDown	41324	4	Index	4
84.8533333333333	0	n/a	50913	KeyDown	41324	4	Index	4
85.0100000000000	0	n/a	51007	KeyDown	41324	1	Little	4
85.2450000000000	0	n/a	51148	KeyDown	41324	3	Middle	4
85.4450000000000	0	n/a	51268	KeyDown	41324	2	Ring	4
85.6150000000000	0	n/a	51370	KeyDown	41324	4	Index	4
85.8300000000000	0	n/a	51499	KeyDown	41324	4	Index	4
85.9700000000000	0	n/a	51583	KeyDown	41324	1	Little	4
86.1750000000000	0	n/a	51706	KeyDown	41324	3	Middle	4
86.3133333333333	0	n/a	51789	KeyDown	41324	2	Ring	4
86.4683333333333	0	n/a	51882	KeyDown	41324	4	Index	4
86.6450000000000	0	n/a	51988	KeyDown	41324	4	Index	4
86.7966666666667	0	n/a	52079	KeyDown	41324	1	Little	4
87.0100000000000	0	n/a	52207	KeyDown	41324	3	Middle	4
87.2233333333333	0	n/a	52335	KeyDown	41324	2	Ring	4
87.3316666666667	0	n/a	52400	KeyDown	41324	4	Index	4
87.5283333333333	0	n/a	52518	KeyDown	41324	4	Index	4
87.6750000000000	0	n/a	52606	KeyDown	41324	1	Little	4
88.0450000000000	0	n/a	52828	StopPractice	41324	n/a	n/a	4
88.0466666666667	0	n/a	52829	StartRest	XXXXX	n/a	n/a	4
98.0966666666667	0	n/a	58859	StopRest	XXXXX	n/a	n/a	4
98.0983333333333	0	UPPT001	58860	StartPractice	41324	n/a	n/a	5
98.5366666666667	0	n/a	59123	KeyDown	41324	4	Index	5
98.7166666666667	0	n/a	59231	KeyDown	41324	1	Little	5
98.9766666666667	0	n/a	59387	KeyDown	41324	3	Middle	5
99.1783333333333	0	n/a	59508	KeyDown	41324	2	Ring	5
99.3000000000000	0	n/a	59581	KeyDown	41324	4	Index	5
99.4850000000000	0	n/a	59692	KeyDown	41324	4	Index	5
99.6383333333333	0	n/a	59784	KeyDown	41324	1	Little	5
99.8250000000000	0	n/a	59896	KeyDown	41324	3	Middle	5
100.0566666666667	0	n/a	60035	KeyDown	41324	2	Ring	5
100.1583333333333	0	n/a	60096	KeyDown	41324	4	Index	5
100.3400000000000	0	n/a	60205	KeyDown	41324	4	Index	5
100.4700000000000	0	n/a	60283	KeyDown	41324	1	Little	5
100.7333333333333	0	n/a	60441	KeyDown	41324	3	Middle	5
101.6600000000000	0	n/a	60997	KeyDown	41324	4	Index	5
101.8333333333333	0	n/a	61101	KeyDown	41324	1	Little	5
102.1350000000000	0	n/a	61282	KeyDown	41324	3	Middle	5
102.3850000000000	0	n/a	61432	KeyDown	41324	2	Ring	5
102.5083333333333	0	n/a	61506	KeyDown	41324	4	Index	5
102.6933333333333	0	n/a	61617	KeyDown	41324	4	Index	5
102.8483333333333	0	n/a	61710	KeyDown	41324	1	Little	5
103.0583333333333	0	n/a	61836	KeyDown	41324	3	Middle	5
103.1916666666667	0	n/a	61916	KeyDown	41324	2	Ring	5
103.3300000000000	0	n/a	61999	KeyDown	41324	4	Index	5
103.5216666666667	0	n/a	62114	KeyDown	41324	4	Index	5
103.6533333333333	0	n/a	62193	KeyDown	41324	1	Little	5
104.1950000000000	0	n/a	62518	KeyDown	41324	2	Ring	5
104.8866666666667	0	n/a	62933	KeyDown	41324	2	Ring	5
105.0666666666667	0	n/a	63041	KeyDown	41324	4	Index	5
105.3216666666667	0	n/a	63194	KeyDown	41324	4	Index	5
105.4766666666667	0	n/a	63287	KeyDown	41324	1	Little	5
105.7166666666667	0	n/a	63431	KeyDown	41324	3	Middle	5
105.9166666666667	0	n/a	63551	KeyDown	41324	2	Ring	5
106.0166666666667	0	n/a	63611	KeyDown	41324	4	Index	5
106.2066666666667	0	n/a	63725	KeyDown	41324	4	Index	5
106.3450000000000	0	n/a	63808	KeyDown	41324	1	Little	5
106.7200000000000	0	n/a	64033	KeyDown	41324	3	Middle	5
106.8733333333333	0	n/a	64125	KeyDown	41324	2	Ring	5
106.9950000000000	0	n/a	64198	KeyDown	41324	4	Index	5
107.2933333333333	0	n/a	64377	KeyDown	41324	4	Index	5
107.6250000000000	0	n/a	64576	KeyDown	41324	1	Little	5
108.1366666666667	0	n/a	64883	StopPractice	41324	n/a	n/a	5
108.1383333333333	0	n/a	64884	StartRest	XXXXX	n/a	n/a	5
118.1716666666667	0	n/a	70904	StopRest	XXXXX	n/a	n/a	5
118.1733333333333	0	UPPT001	70905	StartPractice	41324	n/a	n/a	6
118.5966666666667	0	n/a	71159	KeyDown	41324	4	Index	6
118.7516666666667	0	n/a	71252	KeyDown	41324	1	Little	6
119.0600000000000	0	n/a	71437	KeyDown	41324	3	Middle	6
119.2916666666667	0	n/a	71576	KeyDown	41324	2	Ring	6
119.4216666666667	0	n/a	71654	KeyDown	41324	4	Index	6
119.6000000000000	0	n/a	71761	KeyDown	41324	4	Index	6
119.7400000000000	0	n/a	71845	KeyDown	41324	1	Little	6
120.0600000000000	0	n/a	72037	KeyDown	41324	3	Middle	6
120.2750000000000	0	n/a	72166	KeyDown	41324	2	Ring	6
120.4533333333333	0	n/a	72273	KeyDown	41324	4	Index	6
120.6450000000000	0	n/a	72388	KeyDown	41324	4	Index	6
120.8050000000000	0	n/a	72484	KeyDown	41324	1	Little	6
121.1966666666667	0	n/a	72719	KeyDown	41324	3	Middle	6
121.3550000000000	0	n/a	72814	KeyDown	41324	2	Ring	6
121.5116666666667	0	n/a	72908	KeyDown	41324	4	Index	6
121.6933333333333	0	n/a	73017	KeyDown	41324	4	Index	6
121.8333333333333	0	n/a	73101	KeyDown	41324	1	Little	6
122.0816666666667	0	n/a	73250	KeyDown	41324	3	Middle	6
122.2316666666667	0	n/a	73340	KeyDown	41324	2	Ring	6
122.3783333333333	0	n/a	73428	KeyDown	41324	4	Index	6
122.5600000000000	0	n/a	73537	KeyDown	41324	4	Index	6
122.6800000000000	0	n/a	73609	KeyDown	41324	1	Little	6
122.9350000000000	0	n/a	73762	KeyDown	41324	3	Middle	6
123.1600000000000	0	n/a	73897	KeyDown	41324	2	Ring	6
123.3266666666667	0	n/a	73997	KeyDown	41324	4	Index	6
123.5150000000000	0	n/a	74110	KeyDown	41324	4	Index	6
123.6733333333333	0	n/a	74205	KeyDown	41324	1	Little	6
123.9300000000000	0	n/a	74359	KeyDown	41324	3	Middle	6
124.1200000000000	0	n/a	74473	KeyDown	41324	2	Ring	6
124.3050000000000	0	n/a	74584	KeyDown	41324	4	Index	6
124.5050000000000	0	n/a	74704	KeyDown	41324	4	Index	6
124.6750000000000	0	n/a	74806	KeyDown	41324	1	Little	6
125.0250000000000	0	n/a	75016	KeyDown	41324	3	Middle	6
125.2250000000000	0	n/a	75136	KeyDown	41324	2	Ring	6
125.3783333333333	0	n/a	75228	KeyDown	41324	4	Index	6
125.5866666666667	0	n/a	75353	KeyDown	41324	4	Index	6
125.7516666666667	0	n/a	75452	KeyDown	41324	1	Little	6
126.2200000000000	0	n/a	75733	KeyDown	41324	3	Middle	6
126.3166666666667	0	n/a	75791	KeyDown	41324	2	Ring	6
126.4283333333333	0	n/a	75858	KeyDown	41324	2	Ring	6
126.5516666666667	0	n/a	75932	KeyDown	41324	4	Index	6
126.8016666666667	0	n/a	76082	KeyDown	41324	4	Index	6
126.9400000000000	0	n/a	76165	KeyDown	41324	1	Little	6
127.2366666666667	0	n/a	76343	KeyDown	41324	3	Middle	6
127.3866666666667	0	n/a	76433	KeyDown	41324	2	Ring	6
127.4866666666667	0	n/a	76493	KeyDown	41324	4	Index	6
127.6666666666667	0	n/a	76601	KeyDown	41324	4	Index	6
127.8350000000000	0	n/a	76702	KeyDown	41324	1	Little	6
128.2116666666667	0	n/a	76928	StopPractice	41324	n/a	n/a	6
128.2133333333333	0	n/a	76929	StartRest	XXXXX	n/a	n/a	6
138.2466666666667	0	n/a	82949	StopRest	XXXXX	n/a	n/a	6
138.2483333333333	0	UPPT001	82950	StartPractice	41324	n/a	n/a	7
138.5416666666667	0	n/a	83126	KeyDown	41324	4	Index	7
138.7016666666667	0	n/a	83222	KeyDown	41324	1	Little	7
138.9166666666667	0	n/a	83351	KeyDown	41324	3	Middle	7
139.0650000000000	0	n/a	83440	KeyDown	41324	2	Ring	7
139.2000000000000	0	n/a	83521	KeyDown	41324	4	Index	7
139.3683333333333	0	n/a	83622	KeyDown	41324	4	Index	7
139.5166666666667	0	n/a	83711	KeyDown	41324	1	Little	7
139.9300000000000	0	n/a	83959	KeyDown	41324	3	Middle	7
140.0916666666667	0	n/a	84056	KeyDown	41324	2	Ring	7
140.2500000000000	0	n/a	84151	KeyDown	41324	4	Index	7
140.4016666666667	0	n/a	84242	KeyDown	41324	4	Index	7
140.5450000000000	0	n/a	84328	KeyDown	41324	1	Little	7
140.7650000000000	0	n/a	84460	KeyDown	41324	3	Middle	7
140.9616666666667	0	n/a	84578	KeyDown	41324	2	Ring	7
141.1033333333334	0	n/a	84663	KeyDown	41324	4	Index	7
141.2716666666667	0	n/a	84764	KeyDown	41324	4	Index	7
141.4283333333333	0	n/a	84858	KeyDown	41324	1	Little	7
141.7150000000000	0	n/a	85030	KeyDown	41324	3	Middle	7
141.8566666666667	0	n/a	85115	KeyDown	41324	2	Ring	7
141.9700000000000	0	n/a	85183	KeyDown	41324	4	Index	7
142.1350000000000	0	n/a	85282	KeyDown	41324	4	Index	7
142.3150000000000	0	n/a	85390	KeyDown	41324	4	Index	7
142.4316666666667	0	n/a	85460	KeyDown	41324	1	Little	7
143.1683333333334	0	n/a	85902	KeyDown	41324	3	Middle	7
143.3683333333333	0	n/a	86022	KeyDown	41324	2	Ring	7
143.4733333333333	0	n/a	86085	KeyDown	41324	4	Index	7
143.6433333333333	0	n/a	86187	KeyDown	41324	4	Index	7
143.8233333333334	0	n/a	86295	KeyDown	41324	1	Little	7
144.2050000000000	0	n/a	86524	KeyDown	41324	3	Middle	7
144.3500000000000	0	n/a	86611	KeyDown	41324	2	Ring	7
144.5016666666667	0	n/a	86702	KeyDown	41324	4	Index	7
144.6733333333333	0	n/a	86805	KeyDown	41324	4	Index	7
144.8316666666667	0	n/a	86900	KeyDown	41324	1	Little	7
145.2366666666667	0	n/a	87143	KeyDown	41324	3	Middle	7
145.4016666666667	0	n/a	87242	KeyDown	41324	2	Ring	7
145.5350000000000	0	n/a	87322	KeyDown	41324	4	Index	7
145.7266666666667	0	n/a	87437	KeyDown	41324	4	Index	7
145.8600000000000	0	n/a	87517	KeyDown	41324	1	Little	7
146.1300000000000	0	n/a	87679	KeyDown	41324	3	Middle	7
146.3400000000000	0	n/a	87805	KeyDown	41324	2	Ring	7
146.4816666666667	0	n/a	87890	KeyDown	41324	4	Index	7
146.6466666666667	0	n/a	87989	KeyDown	41324	4	Index	7
146.7833333333333	0	n/a	88071	KeyDown	41324	1	Little	7
147.2450000000000	0	n/a	88348	KeyDown	41324	3	Middle	7
147.4200000000000	0	n/a	88453	KeyDown	41324	2	Ring	7
147.5600000000000	0	n/a	88537	KeyDown	41324	4	Index	7
147.7250000000000	0	n/a	88636	KeyDown	41324	4	Index	7
147.8950000000000	0	n/a	88738	KeyDown	41324	1	Little	7
148.2866666666667	0	n/a	88973	StopPractice	41324	n/a	n/a	7
148.2883333333334	0	n/a	88974	StartRest	XXXXX	n/a	n/a	7
158.3200000000000	0	n/a	94993	StopRest	XXXXX	n/a	n/a	7
158.3216666666667	0	UPPT001	94994	StartPractice	41324	n/a	n/a	8
158.8116666666667	0	n/a	95288	KeyDown	41324	4	Index	8
159.5250000000000	0	n/a	95716	KeyDown	41324	1	Little	8
159.8216666666667	0	n/a	95894	KeyDown	41324	3	Middle	8
160.0066666666667	0	n/a	96005	KeyDown	41324	2	Ring	8
160.1583333333333	0	n/a	96096	KeyDown	41324	4	Index	8
160.3250000000000	0	n/a	96196	KeyDown	41324	4	Index	8
160.4833333333333	0	n/a	96291	KeyDown	41324	1	Little	8
160.7683333333333	0	n/a	96462	KeyDown	41324	3	Middle	8
160.9716666666667	0	n/a	96584	KeyDown	41324	2	Ring	8
161.0583333333333	0	n/a	96636	KeyDown	41324	4	Index	8
161.2433333333333	0	n/a	96747	KeyDown	41324	4	Index	8
161.6433333333333	0	n/a	96987	KeyDown	41324	1	Little	8
162.0483333333333	0	n/a	97230	KeyDown	41324	2	Ring	8
162.8450000000000	0	n/a	97708	KeyDown	41324	3	Middle	8
163.1083333333333	0	n/a	97866	KeyDown	41324	2	Ring	8
163.2816666666667	0	n/a	97970	KeyDown	41324	4	Index	8
163.5183333333333	0	n/a	98112	KeyDown	41324	4	Index	8
163.8983333333333	0	n/a	98340	KeyDown	41324	1	Little	8
164.2233333333334	0	n/a	98535	KeyDown	41324	3	Middle	8
164.5600000000000	0	n/a	98737	KeyDown	41324	4	Index	8
165.6833333333333	0	n/a	99411	KeyDown	41324	4	Index	8
165.9100000000000	0	n/a	99547	KeyDown	41324	1	Little	8
166.1000000000000	0	n/a	99661	KeyDown	41324	3	Middle	8
166.3400000000000	0	n/a	99805	KeyDown	41324	2	Ring	8
166.4250000000000	0	n/a	99856	KeyDown	41324	4	Index	8
166.5933333333333	0	n/a	99957	KeyDown	41324	4	Index	8
166.7633333333333	0	n/a	100059	KeyDown	41324	1	Little	8
167.0250000000000	0	n/a	100216	KeyDown	41324	3	Middle	8
167.3283333333333	0	n/a	100398	KeyDown	41324	2	Ring	8
167.4550000000000	0	n/a	100474	KeyDown	41324	4	Index	8
167.6433333333333	0	n/a	100587	KeyDown	41324	4	Index	8
167.7600000000000	0	n/a	100657	KeyDown	41324	1	Little	8
168.1266666666667	0	n/a	100877	KeyDown	41324	3	Middle	8
168.2633333333333	0	n/a	100959	KeyDown	41324	2	Ring	8
168.3600000000000	0	n/a	101017	StopPractice	41324	n/a	n/a	8
168.3616666666667	0	n/a	101018	StartRest	XXXXX	n/a	n/a	8
178.3966666666667	0	n/a	107039	StopRest	XXXXX	n/a	n/a	8
178.3983333333333	0	UPPT001	107040	StartPractice	41324	n/a	n/a	9
178.7716666666667	0	n/a	107264	KeyDown	41324	4	Index	9
178.9133333333334	0	n/a	107349	KeyDown	41324	1	Little	9
179.1416666666667	0	n/a	107486	KeyDown	41324	3	Middle	9
179.3366666666667	0	n/a	107603	KeyDown	41324	2	Ring	9
179.4833333333333	0	n/a	107691	KeyDown	41324	4	Index	9
179.7216666666667	0	n/a	107834	KeyDown	41324	4	Index	9
179.8600000000000	0	n/a	107917	KeyDown	41324	1	Little	9
180.1100000000000	0	n/a	108067	KeyDown	41324	3	Middle	9
180.2966666666667	0	n/a	108179	KeyDown	41324	2	Ring	9
180.5200000000000	0	n/a	108313	KeyDown	41324	4	Index	9
180.7816666666667	0	n/a	108470	KeyDown	41324	4	Index	9
180.9300000000000	0	n/a	108559	KeyDown	41324	1	Little	9
181.1700000000000	0	n/a	108703	KeyDown	41324	3	Middle	9
181.3466666666667	0	n/a	108809	KeyDown	41324	2	Ring	9
181.4616666666667	0	n/a	108878	KeyDown	41324	4	Index	9
181.6783333333333	0	n/a	109008	KeyDown	41324	4	Index	9
181.8533333333334	0	n/a	109113	KeyDown	41324	1	Little	9
182.1316666666667	0	n/a	109280	KeyDown	41324	3	Middle	9
182.3116666666667	0	n/a	109388	KeyDown	41324	2	Ring	9
182.3950000000000	0	n/a	109438	KeyDown	41324	4	Index	9
182.5883333333333	0	n/a	109554	KeyDown	41324	4	Index	9
182.7866666666667	0	n/a	109673	KeyDown	41324	1	Little	9
183.0366666666667	0	n/a	109823	KeyDown	41324	3	Middle	9
183.2416666666667	0	n/a	109946	KeyDown	41324	2	Ring	9
183.3350000000000	0	n/a	110002	KeyDown	41324	4	Index	9
183.5400000000000	0	n/a	110125	KeyDown	41324	4	Index	9
183.6850000000000	0	n/a	110212	KeyDown	41324	1	Little	9
183.9800000000000	0	n/a	110389	KeyDown	41324	3	Middle	9
184.2616666666667	0	n/a	110558	KeyDown	41324	4	Index	9
184.3883333333333	0	n/a	110634	KeyDown	41324	2	Ring	9
184.5833333333333	0	n/a	110751	KeyDown	41324	4	Index	9
184.8816666666667	0	n/a	110930	KeyDown	41324	1	Little	9
185.2250000000000	0	n/a	111136	KeyDown	41324	2	Ring	9
185.4133333333334	0	n/a	111249	KeyDown	41324	2	Ring	9
185.4833333333333	0	n/a	111291	KeyDown	41324	3	Middle	9
185.6650000000000	0	n/a	111400	KeyDown	41324	4	Index	9
186.1016666666667	0	n/a	111662	KeyDown	41324	1	Little	9
186.2950000000000	0	n/a	111778	KeyDown	41324	3	Middle	9
186.4566666666667	0	n/a	111875	KeyDown	41324	2	Ring	9
186.5483333333333	0	n/a	111930	KeyDown	41324	4	Index	9
186.7466666666667	0	n/a	112049	KeyDown	41324	4	Index	9
186.8850000000000	0	n/a	112132	KeyDown	41324	1	Little	9
187.1150000000000	0	n/a	112270	KeyDown	41324	3	Middle	9
187.2183333333333	0	n/a	112332	KeyDown	41324	2	Ring	9
187.3650000000000	0	n/a	112420	KeyDown	41324	4	Index	9
187.5616666666667	0	n/a	112538	KeyDown	41324	4	Index	9
187.7166666666667	0	n/a	112631	KeyDown	41324	1	Little	9
187.9916666666667	0	n/a	112796	KeyDown	41324	3	Middle	9
188.1766666666667	0	n/a	112907	KeyDown	41324	2	Ring	9
188.2766666666667	0	n/a	112967	KeyDown	41324	4	Index	9
188.4366666666667	0	n/a	113063	StopPractice	41324	n/a	n/a	9
188.4383333333333	0	n/a	113064	StartRest	XXXXX	n/a	n/a	9
198.4733333333334	0	n/a	119085	StopRest	XXXXX	n/a	n/a	9
