onset	duration	channel	onset_sample_idx	event_type	target_sequence	keypress_id	finger_label	trial_number
26.1583333333333	0	UPPT001	15696	StartPractice	41324	n/a	n/a	1
28.0083333333333	0	n/a	16806	KeyDown	41324	4	Index	1
28.4400000000000	0	n/a	17065	KeyDown	41324	1	Little	1
29.6483333333333	0	n/a	17790	KeyDown	41324	3	Middle	1
30.1866666666667	0	n/a	18113	KeyDown	41324	2	Ring	1
31.3133333333333	0	n/a	18789	KeyDown	41324	4	Index	1
36.1966666666667	0	n/a	21719	StopPractice	41324	n/a	n/a	1
36.1983333333333	0	n/a	21720	StartRest	XXXXX	n/a	n/a	1
46.2550000000000	0	n/a	27754	StopRest	XXXXX	n/a	n/a	1
46.2566666666667	0	UPPT001	27755	StartPractice	41324	n/a	n/a	2
47.5183333333333	0	n/a	28512	KeyDown	41324	4	Index	2
47.8750000000000	0	n/a	28726	KeyDown	41324	1	Little	2
48.8066666666667	0	n/a	29285	KeyDown	41324	3	Middle	2
49.1700000000000	0	n/a	29503	KeyDown	41324	2	Ring	2
49.7733333333333	0	n/a	29865	KeyDown	41324	4	Index	2
56.2950000000000	0	n/a	33778	StopPractice	41324	n/a	n/a	2
56.2966666666667	0	n/a	33779	StartRest	XXXXX	n/a	n/a	2
66.3300000000000	0	n/a	39799	StopRest	XXXXX	n/a	n/a	2
66.3316666666667	0	UPPT001	39800	StartPractice	41324	n/a	n/a	3
67.4333333333333	0	n/a	40461	KeyDown	41324	4	Index	3
67.8300000000000	0	n/a	40699	KeyDown	41324	1	Little	3
68.5050000000000	0	n/a	41104	KeyDown	41324	3	Middle	3
68.9050000000000	0	n/a	41344	KeyDown	41324	2	Ring	3
69.2583333333333	0	n/a	41556	KeyDown	41324	4	Index	3
74.5016666666667	0	n/a	44702	KeyDown	41324	4	Index	3
74.7966666666667	0	n/a	44879	KeyDown	41324	1	Little	3
75.2033333333333	0	n/a	45123	KeyDown	41324	3	Middle	3
75.5716666666667	0	n/a	45344	KeyDown	41324	2	Ring	3
75.8833333333333	0	n/a	45531	KeyDown	41324	4	Index	3
76.3700000000000	0	n/a	45823	StopPractice	41324	n/a	n/a	3
76.3716666666667	0	n/a	45824	StartRest	XXXXX	n/a	n/a	3
86.4050000000000	0	n/a	51844	StopRest	XXXXX	n/a	n/a	3
86.4066666666667	0	UPPT001	51845	StartPractice	41324	n/a	n/a	4
87.0333333333333	0	n/a	52221	KeyDown	41324	4	Index	4
87.5650000000000	0	n/a	52540	KeyDown	41324	1	Little	4
87.9516666666667	0	n/a	52772	KeyDown	41324	3	Middle	4
88.2750000000000	0	n/a	52966	KeyDown	41324	2	Ring	4
88.5183333333333	0	n/a	53112	KeyDown	41324	4	Index	4
96.4450000000000	0	n/a	57868	StopPractice	41324	n/a	n/a	4
96.4466666666667	0	n/a	57869	StartRest	XXXXX	n/a	n/a	4
106.4800000000000	0	n/a	63889	StopRest	XXXXX	n/a	n/a	4
106.4816666666667	0	UPPT001	63890	StartPractice	41324	n/a	n/a	5
107.1900000000000	0	n/a	64315	KeyDown	41324	4	Index	5
107.6250000000000	0	n/a	64576	KeyDown	41324	1	Little	5
108.0333333333333	0	n/a	64821	KeyDown	41324	3	Middle	5
108.3350000000000	0	n/a	65002	KeyDown	41324	2	Ring	5
108.5616666666667	0	n/a	65138	KeyDown	41324	4	Index	5
116.5200000000000	0	n/a	69913	StopPractice	41324	n/a	n/a	5
116.5216666666667	0	n/a	69914	StartRest	XXXXX	n/a	n/a	5
126.5550000000000	0	n/a	75934	StopRest	XXXXX	n/a	n/a	5
126.5566666666667	0	UPPT001	75935	StartPractice	41324	n/a	n/a	6
127.3116666666667	0	n/a	76388	KeyDown	41324	4	Index	6
127.6783333333333	0	n/a	76608	KeyDown	41324	1	Little	6
127.9883333333333	0	n/a	76794	KeyDown	41324	3	Middle	6
128.3266666666667	0	n/a	76997	KeyDown	41324	2	Ring	6
128.6083333333333	0	n/a	77166	KeyDown	41324	4	Index	6
128.7183333333333	0	n/a	77232	KeyDown	41324	4	Index	6
129.1933333333333	0	n/a	77517	KeyDown	41324	4	Index	6
129.5400000000000	0	n/a	77725	KeyDown	41324	1	Little	6
129.9100000000000	0	n/a	77947	KeyDown	41324	3	Middle	6
130.1616666666667	0	n/a	78098	KeyDown	41324	2	Ring	6
130.3883333333333	0	n/a	78234	KeyDown	41324	4	Index	6
130.7333333333333	0	n/a	78441	KeyDown	41324	4	Index	6
131.0216666666667	0	n/a	78614	KeyDown	41324	1	Little	6
131.4650000000000	0	n/a	78880	KeyDown	41324	3	Middle	6
131.7850000000000	0	n/a	79072	KeyDown	41324	2	Ring	6
132.0333333333333	0	n/a	79221	KeyDown	41324	4	Index	6
132.4666666666667	0	n/a	79481	KeyDown	41324	4	Index	6
132.7916666666667	0	n/a	79676	KeyDown	41324	1	Little	6
133.2933333333334	0	n/a	79977	KeyDown	41324	3	Middle	6
133.5316666666667	0	n/a	80120	KeyDown	41324	2	Ring	6
133.7266666666667	0	n/a	80237	KeyDown	41324	4	Index	6
134.1050000000000	0	n/a	80464	KeyDown	41324	4	Index	6
134.3916666666667	0	n/a	80636	KeyDown	41324	1	Little	6
134.6633333333334	0	n/a	80799	KeyDown	41324	3	Middle	6
134.9116666666667	0	n/a	80948	KeyDown	41324	2	Ring	6
135.1000000000000	0	n/a	81061	KeyDown	41324	4	Index	6
135.4900000000000	0	n/a	81295	KeyDown	41324	4	Index	6
135.7700000000000	0	n/a	81463	KeyDown	41324	1	Little	6
136.5950000000000	0	n/a	81958	StopPractice	41324	n/a	n/a	6
136.5966666666667	0	n/a	81959	StartRest	XXXXX	n/a	n/a	6
146.6283333333333	0	n/a	87978	StopRest	XXXXX	n/a	n/a	6
146.6300000000000	0	UPPT001	87979	StartPractice	41324	n/a	n/a	7
147.5250000000000	0	n/a	88516	KeyDown	41324	4	Index	7
147.8133333333333	0	n/a	88689	KeyDown	41324	1	Little	7
148.1183333333333	0	n/a	88872	KeyDown	41324	3	Middle	7
148.3483333333333	0	n/a	89010	KeyDown	41324	2	Ring	7
148.5350000000000	0	n/a	89122	KeyDown	41324	4	Index	7
148.8466666666667	0	n/a	89309	KeyDown	41324	4	Index	7
149.0866666666667	0	n/a	89453	KeyDown	41324	1	Little	7
149.4733333333333	0	n/a	89685	KeyDown	41324	3	Middle	7
149.7066666666667	0	n/a	89825	KeyDown	41324	2	Ring	7
149.8866666666667	0	n/a	89933	KeyDown	41324	4	Index	7
150.2316666666667	0	n/a	90140	KeyDown	41324	4	Index	7
150.4633333333333	0	n/a	90279	KeyDown	41324	1	Little	7
150.7733333333333	0	n/a	90465	KeyDown	41324	3	Middle	7
151.0133333333333	0	n/a	90609	KeyDown	41324	2	Ring	7
151.1983333333334	0	n/a	90720	KeyDown	41324	4	Index	7
151.5333333333333	0	n/a	90921	KeyDown	41324	4	Index	7
151.7283333333334	0	n/a	91038	KeyDown	41324	1	Little	7
152.1216666666667	0	n/a	91274	KeyDown	41324	3	Middle	7
152.3516666666667	0	n/a	91412	KeyDown	41324	2	Ring	7
152.5583333333333	0	n/a	91536	KeyDown	41324	4	Index	7
152.9483333333334	0	n/a	91770	KeyDown	41324	4	Index	7
153.1916666666667	0	n/a	91916	KeyDown	41324	1	Little	7
153.5816666666667	0	n/a	92150	KeyDown	41324	3	Middle	7
154.1166666666667	0	n/a	92471	KeyDown	41324	2	Ring	7
154.3466666666667	0	n/a	92609	KeyDown	41324	4	Index	7
154.7716666666667	0	n/a	92864	KeyDown	41324	4	Index	7
155.0616666666667	0	n/a	93038	KeyDown	41324	1	Little	7
155.4000000000000	0	n/a	93241	KeyDown	41324	3	Middle	7
155.6516666666667	0	n/a	93392	KeyDown	41324	2	Ring	7
155.8650000000000	0	n/a	93520	KeyDown	41324	4	Index	7
156.2916666666667	0	n/a	93776	KeyDown	41324	4	Index	7
156.6683333333334	0	n/a	94002	StopPractice	41324	n/a	n/a	7
156.6700000000000	0	n/a	94003	StartRest	XXXXX	n/a	n/a	7
166.7050000000000	0	n/a	100024	StopRest	XXXXX	n/a	n/a	7
166.7066666666667	0	UPPT001	100025	StartPractice	41324	n/a	n/a	8
167.2683333333333	0	n/a	100362	KeyDown	41324	4	Index	8
167.4950000000000	0	n/a	100498	KeyDown	41324	1	Little	8
167.7450000000000	0	n/a	100648	KeyDown	41324	3	Middle	8
167.9800000000000	0	n/a	100789	KeyDown	41324	2	Ring	8
168.1966666666667	0	n/a	100919	KeyDown	41324	4	Index	8
168.5000000000000	0	n/a	101101	KeyDown	41324	4	Index	8
168.8283333333333	0	n/a	101298	KeyDown	41324	1	Little	8
169.1850000000000	0	n/a	101512	KeyDown	41324	3	Middle	8
169.4183333333334	0	n/a	101652	KeyDown	41324	2	Ring	8
169.6383333333333	0	n/a	101784	KeyDown	41324	4	Index	8
169.9350000000000	0	n/a	101962	KeyDown	41324	4	Index	8
170.1916666666667	0	n/a	102116	KeyDown	41324	1	Little	8
170.4883333333333	0	n/a	102294	KeyDown	41324	3	Middle	8
170.8783333333333	0	n/a	102528	KeyDown	41324	2	Ring	8
171.1516666666667	0	n/a	102692	KeyDown	41324	4	Index	8
171.3816666666667	0	n/a	102830	KeyDown	41324	4	Index	8
171.5916666666667	0	n/a	102956	KeyDown	41324	1	Little	8
171.8950000000000	0	n/a	103138	KeyDown	41324	3	Middle	8
172.1500000000000	0	n/a	103291	KeyDown	41324	2	Ring	8
172.3700000000000	0	n/a	103423	KeyDown	41324	4	Index	8
172.6516666666667	0	n/a	103592	KeyDown	41324	4	Index	8
172.8966666666667	0	n/a	103739	KeyDown	41324	1	Little	8
173.2383333333333	0	n/a	103944	KeyDown	41324	3	Middle	8
173.4683333333333	0	n/a	104082	KeyDown	41324	2	Ring	8
173.6733333333333	0	n/a	104205	KeyDown	41324	4	Index	8
173.9733333333334	0	n/a	104385	KeyDown	41324	4	Index	8
174.2133333333333	0	n/a	104529	KeyDown	41324	1	Little	8
174.5066666666667	0	n/a	104705	KeyDown	41324	3	Middle	8
174.7566666666667	0	n/a	104855	KeyDown	41324	2	Ring	8
174.9750000000000	0	n/a	104986	KeyDown	41324	4	Index	8
175.2450000000000	0	n/a	105148	KeyDown	41324	4	Index	8
175.4600000000000	0	n/a	105277	KeyDown	41324	1	Little	8
175.7916666666667	0	n/a	105476	KeyDown	41324	3	Middle	8
175.9783333333334	0	n/a	105588	KeyDown	41324	2	Ring	8
176.2033333333333	0	n/a	105723	KeyDown	41324	4	Index	8
176.4883333333333	0	n/a	105894	KeyDown	41324	4	Index	8
176.6983333333334	0	n/a	106020	KeyDown	41324	1	Little	8
176.7450000000000	0	n/a	106048	StopPractice	41324	n/a	n/a	8
176.7466666666667	0	n/a	106049	StartRest	XXXXX	n/a	n/a	8
186.7783333333333	0	n/a	112068	StopRest	XXXXX	n/a	n/a	8
186.7800000000000	0	UPPT001	112069	StartPractice	41324	n/a	n/a	9
187.3116666666667	0	n/a	112388	KeyDown	41324	4	Index	9
187.5133333333333	0	n/a	112509	KeyDown	41324	1	Little	9
187.7566666666667	0	n/a	112655	KeyDown	41324	3	Middle	9
187.9483333333334	0	n/a	112770	KeyDown	41324	2	Ring	9
188.1433333333333	0	n/a	112887	KeyDown	41324	4	Index	9
188.3716666666667	0	n/a	113024	KeyDown	41324	4	Index	9
188.5716666666667	0	n/a	113144	KeyDown	41324	1	Little	9
188.8333333333333	0	n/a	113301	KeyDown	41324	3	Middle	9
189.0733333333334	0	n/a	113445	KeyDown	41324	2	Ring	9
189.2516666666667	0	n/a	113552	KeyDown	41324	4	Index	9
189.4866666666667	0	n/a	113693	KeyDown	41324	4	Index	9
189.7016666666667	0	n/a	113822	KeyDown	41324	1	Little	9
189.9500000000000	0	n/a	113971	KeyDown	41324	3	Middle	9
190.1966666666667	0	n/a	114119	KeyDown	41324	2	Ring	9
190.3883333333333	0	n/a	114234	KeyDown	41324	4	Index	9
190.8366666666667	0	n/a	114503	KeyDown	41324	4	Index	9
191.0566666666667	0	n/a	114635	KeyDown	41324	1	Little	9
191.3550000000000	0	n/a	114814	KeyDown	41324	3	Middle	9
191.5966666666667	0	n/a	114959	KeyDown	41324	2	Ring	9
191.7866666666667	0	n/a	115073	KeyDown	41324	4	Index	9
192.0266666666667	0	n/a	115217	KeyDown	41324	4	Index	9
192.2966666666667	0	n/a	115379	KeyDown	41324	1	Little	9
192.5116666666667	0	n/a	115508	KeyDown	41324	3	Middle	9
192.7666666666667	0	n/a	115661	KeyDown	41324	2	Ring	9
192.9400000000000	0	n/a	115765	KeyDown	41324	4	Index	9
193.1766666666667	0	n/a	115907	KeyDown	41324	4	Index	9
193.3616666666667	0	n/a	116018	KeyDown	41324	1	Little	9
193.6150000000000	0	n/a	116170	KeyDown	41324	3	Middle	9
193.8283333333333	0	n/a	116298	KeyDown	41324	2	Ring	9
194.0183333333333	0	n/a	116412	KeyDown	41324	4	Index	9
194.2366666666667	0	n/a	116543	KeyDown	41324	4	Index	9
194.5466666666667	0	n/a	116729	KeyDown	41324	1	Little	9
195.1383333333333	0	n/a	117084	KeyDown	41324	3	Middle	9
195.3833333333334	0	n/a	117231	KeyDown	41324	2	Ring	9
195.6650000000000	0	n/a	117400	KeyDown	41324	4	Index	9
196.1133333333333	0	n/a	117669	KeyDown	41324	4	Index	9
196.3450000000000	0	n/a	117808	KeyDown	41324	1	Little	9
196.5650000000000	0	n/a	117940	KeyDown	41324	3	Middle	9
196.8183333333334	0	n/a	118092	StopPractice	41324	n/a	n/a	9
196.8200000000000	0	n/a	118093	StartRest	XXXXX	n/a	n/a	9
206.8533333333334	0	n/a	124113	StopRest	XXXXX	n/a	n/a	9
206.8550000000000	0	UPPT001	124114	StartPractice	41324	n/a	n/a	10
207.3366666666667	0	n/a	124403	KeyDown	41324	4	Index	10
207.5683333333334	0	n/a	124542	KeyDown	41324	1	Little	10
207.7833333333334	0	n/a	124671	KeyDown	41324	3	Middle	10
207.9833333333333	0	n/a	124791	KeyDown	41324	2	Ring	10
208.1500000000000	0	n/a	124891	KeyDown	41324	4	Index	10
208.6083333333333	0	n/a	125166	KeyDown	41324	4	Index	10
208.9083333333334	0	n/a	125346	KeyDown	41324	1	Little	10
209.1616666666667	0	n/a	125498	KeyDown	41324	3	Middle	10
209.4233333333333	0	n/a	125655	KeyDown	41324	2	Ring	10
209.6316666666667	0	n/a	125780	KeyDown	41324	4	Index	10
209.9066666666667	0	n/a	125945	KeyDown	41324	4	Index	10
210.1400000000000	0	n/a	126085	KeyDown	41324	1	Little	10
210.4216666666667	0	n/a	126254	KeyDown	41324	3	Middle	10
210.6466666666667	0	n/a	126389	KeyDown	41324	2	Ring	10
210.8400000000000	0	n/a	126505	KeyDown	41324	4	Index	10
211.0766666666667	0	n/a	126647	KeyDown	41324	4	Index	10
211.3633333333333	0	n/a	126819	KeyDown	41324	1	Little	10
211.6350000000000	0	n/a	126982	KeyDown	41324	3	Middle	10
211.9366666666667	0	n/a	127163	KeyDown	41324	2	Ring	10
212.1433333333333	0	n/a	127287	KeyDown	41324	4	Index	10
212.4716666666667	0	n/a	127484	KeyDown	41324	4	Index	10
212.6700000000000	0	n/a	127603	KeyDown	41324	1	Little	10
213.0166666666667	0	n/a	127811	KeyDown	41324	3	Middle	10
213.2483333333333	0	n/a	127950	KeyDown	41324	2	Ring	10
213.4616666666667	0	n/a	128078	KeyDown	41324	4	Index	10
213.7816666666667	0	n/a	128270	KeyDown	41324	4	Index	10
214.2666666666667	0	n/a	128561	KeyDown	41324	1	Little	10
214.5333333333334	0	n/a	128721	KeyDown	41324	3	Middle	10
214.7900000000000	0	n/a	128875	KeyDown	41324	2	Ring	10
214.9750000000000	0	n/a	128986	KeyDown	41324	4	Index	10
215.4166666666667	0	n/a	129251	KeyDown	41324	4	Index	10
215.6133333333333	0	n/a	129369	KeyDown	41324	1	Little	10
215.8533333333334	0	n/a	129513	KeyDown	41324	3	Middle	10
216.0716666666667	0	n/a	129644	KeyDown	41324	2	Ring	10
216.2316666666667	0	n/a	129740	KeyDown	41324	4	Index	10
216.4416666666667	0	n/a	129866	KeyDown	41324	4	Index	10
216.6766666666667	0	n/a	130007	KeyDown	41324	1	Little	10
216.8933333333333	0	n/a	130137	StopPractice	41324	n/a	n/a	10
216.8950000000000	0	n/a	130138	StartRest	XXXXX	n/a	n/a	10
226.9300000000000	0	n/a	136159	StopRest	XXXXX	n/a	n/a	10
226.9316666666667	0	UPPT001	136160	StartPractice	41324	n/a	n/a	11
227.4216666666667	0	n/a	136454	KeyDown	41324	4	Index	11
227.6450000000000	0	n/a	136588	KeyDown	41324	1	Little	11
227.8833333333334	0	n/a	136731	KeyDown	41324	3	Middle	11
228.0666666666667	0	n/a	136841	KeyDown	41324	2	Ring	11
228.2700000000000	0	n/a	136963	KeyDown	41324	4	Index	11
228.4733333333334	0	n/a	137085	KeyDown	41324	4	Index	11
228.6500000000000	0	n/a	137191	KeyDown	41324	1	Little	11
228.8750000000000	0	n/a	137326	KeyDown	41324	3	Middle	11
229.0616666666667	0	n/a	137438	KeyDown	41324	2	Ring	11
229.2500000000000	0	n/a	137551	KeyDown	41324	4	Index	11
229.4583333333333	0	n/a	137676	KeyDown	41324	4	Index	11
229.6500000000000	0	n/a	137791	KeyDown	41324	1	Little	11
230.0366666666667	0	n/a	138023	KeyDown	41324	3	Middle	11
230.2416666666667	0	n/a	138146	KeyDown	41324	2	Ring	11
230.4183333333334	0	n/a	138252	KeyDown	41324	4	Index	11
230.8233333333334	0	n/a	138495	KeyDown	41324	4	Index	11
231.0250000000000	0	n/a	138616	KeyDown	41324	1	Little	11
231.3216666666667	0	n/a	138794	KeyDown	41324	3	Middle	11
231.5150000000000	0	n/a	138910	KeyDown	41324	2	Ring	11
231.6700000000000	0	n/a	139003	KeyDown	41324	4	Index	11
231.8783333333334	0	n/a	139128	KeyDown	41324	4	Index	11
232.0733333333334	0	n/a	139245	KeyDown	41324	1	Little	11
232.3966666666667	0	n/a	139439	KeyDown	41324	3	Middle	11
232.5800000000000	0	n/a	139549	KeyDown	41324	2	Ring	11
232.7416666666667	0	n/a	139646	KeyDown	41324	4	Index	11
232.9750000000000	0	n/a	139786	KeyDown	41324	4	Index	11
233.1883333333334	0	n/a	139914	KeyDown	41324	1	Little	11
233.5350000000000	0	n/a	140122	KeyDown	41324	3	Middle	11
233.6983333333334	0	n/a	140220	KeyDown	41324	2	Ring	11
233.8383333333333	0	n/a	140304	KeyDown	41324	4	Index	11
234.1033333333334	0	n/a	140463	KeyDown	41324	4	Index	11
234.3433333333334	0	n/a	140607	KeyDown	41324	1	Little	11
234.6183333333333	0	n/a	140772	KeyDown	41324	3	Middle	11
234.8183333333334	0	n/a	140892	KeyDown	41324	2	Ring	11
234.9983333333333	0	n/a	141000	KeyDown	41324	4	Index	11
235.2333333333333	0	n/a	141141	KeyDown	41324	4	Index	11
235.4483333333334	0	n/a	141270	KeyDown	41324	1	Little	11
235.7150000000000	0	n/a	141430	KeyDown	41324	3	Middle	11
236.1650000000000	0	n/a	141700	KeyDown	41324	2	Ring	11
236.3500000000000	0	n/a	141811	KeyDown	41324	4	Index	11
236.6100000000000	0	n/a	141967	KeyDown	41324	4	Index	11
236.8166666666667	0	n/a	142091	KeyDown	41324	1	Little	11
236.9700000000000	0	n/a	142183	StopPractice	41324	n/a	n/a	11
236.9716666666667	0	n/a	142184	StartRest	XXXXX	n/a	n/a	11
247.0033333333334	0	n/a	148203	StopRest	XXXXX	n/a	n/a	11
247.0050000000000	0	UPPT001	148204	StartPractice	41324	n/a	n/a	12
247.3900000000000	0	n/a	148435	KeyDown	41324	4	Index	12
247.5733333333334	0	n/a	148545	KeyDown	41324	1	Little	12
247.7516666666667	0	n/a	148652	KeyDown	41324	3	Middle	12
247.9216666666667	0	n/a	148754	KeyDown	41324	2	Ring	12
248.0766666666667	0	n/a	148847	KeyDown	41324	4	Index	12
248.2616666666667	0	n/a	148958	KeyDown	41324	4	Index	12
248.4466666666667	0	n/a	149069	KeyDown	41324	1	Little	12
248.6550000000000	0	n/a	149194	KeyDown	41324	3	Middle	12
248.8716666666667	0	n/a	149324	KeyDown	41324	2	Ring	12
249.0250000000000	0	n/a	149416	KeyDown	41324	4	Index	12
249.5816666666667	0	n/a	149750	KeyDown	41324	4	Index	12
249.8866666666667	0	n/a	149933	KeyDown	41324	1	Little	12
250.2516666666667	0	n/a	150152	KeyDown	41324	3	Middle	12
250.4100000000000	0	n/a	150247	KeyDown	41324	2	Ring	12
250.5633333333334	0	n/a	150339	KeyDown	41324	4	Index	12
250.7716666666667	0	n/a	150464	KeyDown	41324	4	Index	12
250.9633333333333	0	n/a	150579	KeyDown	41324	1	Little	12
251.1700000000000	0	n/a	150703	KeyDown	41324	3	Middle	12
251.3816666666667	0	n/a	150830	KeyDown	41324	2	Ring	12
251.5283333333333	0	n/a	150918	KeyDown	41324	4	Index	12
251.7733333333333	0	n/a	151065	KeyDown	41324	1	Little	12
252.5366666666667	0	n/a	151523	KeyDown	41324	4	Index	12
253.1216666666667	0	n/a	151874	KeyDown	41324	1	Little	12
253.4600000000000	0	n/a	152077	KeyDown	41324	3	Middle	12
253.6450000000000	0	n/a	152188	KeyDown	41324	2	Ring	12
253.8250000000000	0	n/a	152296	KeyDown	41324	4	Index	12
254.0466666666667	0	n/a	152429	KeyDown	41324	4	Index	12
254.2416666666667	0	n/a	152546	KeyDown	41324	1	Little	12
254.5333333333334	0	n/a	152721	KeyDown	41324	3	Middle	12
254.7116666666667	0	n/a	152828	KeyDown	41324	2	Ring	12
254.8600000000000	0	n/a	152917	KeyDown	41324	4	Index	12
255.0900000000000	0	n/a	153055	KeyDown	41324	4	Index	12
255.2733333333333	0	n/a	153165	KeyDown	41324	1	Little	12
255.5166666666667	0	n/a	153311	KeyDown	41324	2	Ring	12
256.4866666666667	0	n/a	153893	KeyDown	41324	3	Middle	12
256.6916666666667	0	n/a	154016	KeyDown	41324	2	Ring	12
256.9450000000000	0	n/a	154168	KeyDown	41324	4	Index	12
257.0433333333334	0	n/a	154227	StopPractice	41324	n/a	n/a	12
257.0450000000000	0	n/a	154228	StartRest	XXXXX	n/a	n/a	12
267.0783333333334	0	n/a	160248	StopRest	XXXXX	n/a	n/a	12
267.0800000000000	0	UPPT001	160249	StartPractice	41324	n/a	n/a	13
267.5566666666667	0	n/a	160535	KeyDown	41324	4	Index	13
267.7816666666667	0	n/a	160670	KeyDown	41324	1	Little	13
268.1083333333333	0	n/a	160866	KeyDown	41324	3	Middle	13
268.2966666666667	0	n/a	160979	KeyDown	41324	2	Ring	13
268.4566666666667	0	n/a	161075	KeyDown	41324	4	Index	13
268.8833333333333	0	n/a	161331	KeyDown	41324	4	Index	13
269.0716666666667	0	n/a	161444	KeyDown	41324	1	Little	13
269.3166666666667	0	n/a	161591	KeyDown	41324	3	Middle	13
269.5066666666667	0	n/a	161705	KeyDown	41324	2	Ring	13
269.6550000000000	0	n/a	161794	KeyDown	41324	4	Index	13
269.8500000000000	0	n/a	161911	KeyDown	41324	4	Index	13
270.0150000000000	0	n/a	162010	KeyDown	41324	1	Little	13
270.4966666666667	0	n/a	162299	KeyDown	41324	3	Middle	13
270.6583333333334	0	n/a	162396	KeyDown	41324	2	Ring	13
270.9450000000000	0	n/a	162568	KeyDown	41324	4	Index	13
271.5716666666667	0	n/a	162944	KeyDown	41324	4	Index	13
271.9616666666667	0	n/a	163178	KeyDown	41324	1	Little	13
272.4766666666667	0	n/a	163487	KeyDown	41324	3	Middle	13
272.6683333333334	0	n/a	163602	KeyDown	41324	2	Ring	13
272.8750000000000	0	n/a	163726	KeyDown	41324	4	Index	13
273.1283333333333	0	n/a	163878	KeyDown	41324	4	Index	13
273.7633333333334	0	n/a	164259	KeyDown	41324	1	Little	13
274.0033333333333	0	n/a	164403	KeyDown	41324	3	Middle	13
274.1900000000000	0	n/a	164515	KeyDown	41324	2	Ring	13
274.3883333333334	0	n/a	164634	KeyDown	41324	4	Index	13
274.6150000000000	0	n/a	164770	KeyDown	41324	4	Index	13
274.8300000000000	0	n/a	164899	KeyDown	41324	1	Little	13
275.0766666666667	0	n/a	165047	KeyDown	41324	3	Middle	13
275.2583333333333	0	n/a	165156	KeyDown	41324	2	Ring	13
275.4566666666667	0	n/a	165275	KeyDown	41324	4	Index	13
275.6766666666667	0	n/a	165407	KeyDown	41324	4	Index	13
275.9066666666667	0	n/a	165545	KeyDown	41324	1	Little	13
277.1183333333333	0	n/a	166272	StopPractice	41324	n/a	n/a	13
277.1200000000000	0	n/a	166273	StartRest	XXXXX	n/a	n/a	13
287.1533333333334	0	n/a	172293	StopRest	XXXXX	n/a	n/a	13
287.1550000000000	0	UPPT001	172294	StartPractice	41324	n/a	n/a	14
287.6150000000000	0	n/a	172570	KeyDown	41324	4	Index	14
287.8300000000000	0	n/a	172699	KeyDown	41324	1	Little	14
288.0283333333334	0	n/a	172818	KeyDown	41324	3	Middle	14
288.2116666666667	0	n/a	172928	KeyDown	41324	2	Ring	14
288.3716666666667	0	n/a	173024	KeyDown	41324	4	Index	14
288.5433333333334	0	n/a	173127	KeyDown	41324	4	Index	14
288.7816666666667	0	n/a	173270	KeyDown	41324	1	Little	14
289.1666666666667	0	n/a	173501	KeyDown	41324	3	Middle	14
289.3483333333334	0	n/a	173610	KeyDown	41324	2	Ring	14
289.5283333333334	0	n/a	173718	KeyDown	41324	4	Index	14
289.8866666666667	0	n/a	173933	KeyDown	41324	4	Index	14
290.1516666666667	0	n/a	174092	KeyDown	41324	1	Little	14
290.3533333333334	0	n/a	174213	KeyDown	41324	3	Middle	14
290.5966666666667	0	n/a	174359	KeyDown	41324	2	Ring	14
290.8083333333333	0	n/a	174486	KeyDown	41324	4	Index	14
291.0983333333334	0	n/a	174660	KeyDown	41324	4	Index	14
291.2883333333334	0	n/a	174774	KeyDown	41324	1	Little	14
291.5266666666667	0	n/a	174917	KeyDown	41324	3	Middle	14
291.7433333333333	0	n/a	175047	KeyDown	41324	2	Ring	14
291.9450000000000	0	n/a	175168	KeyDown	41324	4	Index	14
292.2216666666667	0	n/a	175334	KeyDown	41324	4	Index	14
292.4166666666667	0	n/a	175451	KeyDown	41324	1	Little	14
292.6583333333334	0	n/a	175596	KeyDown	41324	3	Middle	14
292.8483333333334	0	n/a	175710	KeyDown	41324	2	Ring	14
293.0466666666667	0	n/a	175829	KeyDown	41324	4	Index	14
293.2383333333333	0	n/a	175944	KeyDown	41324	4	Index	14
293.4283333333333	0	n/a	176058	KeyDown	41324	1	Little	14
293.6616666666667	0	n/a	176198	KeyDown	41324	3	Middle	14
294.0766666666667	0	n/a	176447	KeyDown	41324	2	Ring	14
294.2966666666667	0	n/a	176579	KeyDown	41324	4	Index	14
294.5216666666667	0	n/a	176714	KeyDown	41324	4	Index	14
294.7283333333334	0	n/a	176838	KeyDown	41324	1	Little	14
295.1950000000000	0	n/a	177118	KeyDown	41324	3	Middle	14
295.4783333333334	0	n/a	177288	KeyDown	41324	2	Ring	14
295.6866666666667	0	n/a	177413	KeyDown	41324	4	Index	14
296.1216666666667	0	n/a	177674	KeyDown	41324	4	Index	14
296.3783333333333	0	n/a	177828	KeyDown	41324	1	Little	14
296.8900000000000	0	n/a	178135	KeyDown	41324	3	Middle	14
297.0483333333333	0	n/a	178230	KeyDown	41324	2	Ring	14
297.1933333333333	0	n/a	178317	StopPractice	41324	n/a	n/a	14
297.1950000000000	0	n/a	178318	StartRest	XXXXX	n/a	n/a	14
307.2283333333334	0	n/a	184338	StopRest	XXXXX	n/a	n/a	14
307.2300000000000	0	UPPT001	184339	StartPractice	41324	n/a	n/a	15
307.7266666666667	0	n/a	184637	KeyDown	41324	4	Index	15
307.9216666666667	0	n/a	184754	KeyDown	41324	1	Little	15
308.1083333333333	0	n/a	184866	KeyDown	41324	3	Middle	15
308.2733333333334	0	n/a	184965	KeyDown	41324	2	Ring	15
308.4216666666667	0	n/a	185054	KeyDown	41324	4	Index	15
308.6166666666667	0	n/a	185171	KeyDown	41324	4	Index	15
308.8200000000000	0	n/a	185293	KeyDown	41324	1	Little	15
309.5316666666667	0	n/a	185720	KeyDown	41324	3	Middle	15
309.6883333333333	0	n/a	185814	KeyDown	41324	2	Ring	15
309.8833333333333	0	n/a	185931	KeyDown	41324	4	Index	15
310.2116666666667	0	n/a	186128	KeyDown	41324	4	Index	15
310.5733333333334	0	n/a	186345	KeyDown	41324	1	Little	15
310.9300000000000	0	n/a	186559	KeyDown	41324	3	Middle	15
311.0950000000000	0	n/a	186658	KeyDown	41324	2	Ring	15
311.2883333333334	0	n/a	186774	KeyDown	41324	4	Index	15
311.5433333333334	0	n/a	186927	KeyDown	41324	4	Index	15
312.4366666666667	0	n/a	187463	KeyDown	41324	1	Little	15
312.6166666666667	0	n/a	187571	KeyDown	41324	3	Middle	15
312.8433333333334	0	n/a	187707	KeyDown	41324	2	Ring	15
313.0333333333334	0	n/a	187821	KeyDown	41324	4	Index	15
313.3283333333334	0	n/a	187998	KeyDown	41324	4	Index	15
313.5950000000000	0	n/a	188158	KeyDown	41324	1	Little	15
313.9516666666667	0	n/a	188372	KeyDown	41324	3	Middle	15
314.1633333333334	0	n/a	188499	KeyDown	41324	2	Ring	15
314.3566666666667	0	n/a	188615	KeyDown	41324	4	Index	15
314.7100000000000	0	n/a	188827	KeyDown	41324	4	Index	15
315.5433333333334	0	n/a	189327	KeyDown	41324	1	Little	15
315.8966666666667	0	n/a	189539	KeyDown	41324	3	Middle	15
316.0433333333334	0	n/a	189627	KeyDown	41324	2	Ring	15
316.2266666666667	0	n/a	189737	KeyDown	41324	4	Index	15
316.4300000000000	0	n/a	189859	KeyDown	41324	4	Index	15
317.2683333333334	0	n/a	190362	StopPractice	41324	n/a	n/a	15
317.2700000000000	0	n/a	190363	StartRest	XXXXX	n/a	n/a	15
327.3033333333333	0	n/a	196383	StopRest	XXXXX	n/a	n/a	15
327.3050000000000	0	UPPT001	196384	StartPractice	41324	n/a	n/a	16
327.7383333333333	0	n/a	196644	KeyDown	41324	4	Index	16
327.9183333333334	0	n/a	196752	KeyDown	41324	1	Little	16
328.1633333333334	0	n/a	196899	KeyDown	41324	3	Middle	16
328.3533333333334	0	n/a	197013	KeyDown	41324	2	Ring	16
328.5116666666667	0	n/a	197108	KeyDown	41324	4	Index	16
328.6950000000000	0	n/a	197218	KeyDown	41324	4	Index	16
328.9883333333333	0	n/a	197394	KeyDown	41324	1	Little	16
329.1916666666667	0	n/a	197516	KeyDown	41324	3	Middle	16
329.3983333333334	0	n/a	197640	KeyDown	41324	2	Ring	16
329.5816666666667	0	n/a	197750	KeyDown	41324	4	Index	16
329.7816666666667	0	n/a	197870	KeyDown	41324	4	Index	16
330.0183333333334	0	n/a	198012	KeyDown	41324	1	Little	16
330.4083333333334	0	n/a	198246	KeyDown	41324	3	Middle	16
330.5500000000000	0	n/a	198331	KeyDown	41324	2	Ring	16
330.7183333333334	0	n/a	198432	KeyDown	41324	4	Index	16
330.9400000000000	0	n/a	198565	KeyDown	41324	4	Index	16
331.1400000000000	0	n/a	198685	KeyDown	41324	1	Little	16
331.4066666666667	0	n/a	198845	KeyDown	41324	2	Ring	16
332.2066666666667	0	n/a	199325	KeyDown	41324	3	Middle	16
332.4033333333334	0	n/a	199443	KeyDown	41324	2	Ring	16
332.5783333333334	0	n/a	199548	KeyDown	41324	4	Index	16
332.8300000000000	0	n/a	199699	KeyDown	41324	4	Index	16
333.1283333333333	0	n/a	199878	KeyDown	41324	1	Little	16
333.3283333333334	0	n/a	199998	KeyDown	41324	3	Middle	16
333.5283333333334	0	n/a	200118	KeyDown	41324	2	Ring	16
333.7200000000000	0	n/a	200233	KeyDown	41324	4	Index	16
334.1383333333334	0	n/a	200484	KeyDown	41324	4	Index	16
334.3166666666667	0	n/a	200591	KeyDown	41324	1	Little	16
334.7183333333334	0	n/a	200832	KeyDown	41324	3	Middle	16
334.8816666666667	0	n/a	200930	KeyDown	41324	2	Ring	16
335.0783333333334	0	n/a	201048	KeyDown	41324	4	Index	16
335.3416666666667	0	n/a	201206	KeyDown	41324	4	Index	16
336.1116666666667	0	n/a	201668	KeyDown	41324	1	Little	16
336.4216666666667	0	n/a	201854	KeyDown	41324	3	Middle	16
336.5933333333334	0	n/a	201957	KeyDown	41324	2	Ring	16
336.7616666666667	0	n/a	202058	KeyDown	41324	4	Index	16
336.9500000000000	0	n/a	202171	KeyDown	41324	4	Index	16
337.2583333333334	0	n/a	202356	KeyDown	41324	1	Little	16
337.3433333333334	0	n/a	202407	StopPractice	41324	n/a	n/a	16
337.3450000000000	0	n/a	202408	StartRest	XXXXX	n/a	n/a	16
347.3783333333333	0	n/a	208428	StopRest	XXXXX	n/a	n/a	16
347.3800000000000	0	UPPT001	208429	StartPractice	41324	n/a	n/a	17
347.9583333333334	0	n/a	208776	KeyDown	41324	4	Index	17
348.1783333333333	0	n/a	208908	KeyDown	41324	1	Little	17
348.3516666666667	0	n/a	209012	KeyDown	41324	3	Middle	17
348.5050000000000	0	n/a	209104	KeyDown	41324	2	Ring	17
348.6433333333334	0	n/a	209187	KeyDown	41324	4	Index	17
348.8416666666667	0	n/a	209306	KeyDown	41324	4	Index	17
348.9983333333333	0	n/a	209400	KeyDown	41324	4	Index	17
349.2716666666667	0	n/a	209564	KeyDown	41324	1	Little	17
349.4483333333334	0	n/a	209670	KeyDown	41324	3	Middle	17
349.7083333333334	0	n/a	209826	KeyDown	41324	2	Ring	17
349.9000000000000	0	n/a	209941	KeyDown	41324	4	Index	17
350.1283333333333	0	n/a	210078	KeyDown	41324	4	Index	17
350.2783333333334	0	n/a	210168	KeyDown	41324	1	Little	17
350.6483333333334	0	n/a	210390	KeyDown	41324	3	Middle	17
350.8200000000001	0	n/a	210493	KeyDown	41324	2	Ring	17
351.0416666666667	0	n/a	210626	KeyDown	41324	4	Index	17
351.3100000000000	0	n/a	210787	KeyDown	41324	4	Index	17
351.7100000000000	0	n/a	211027	KeyDown	41324	1	Little	17
351.8833333333334	0	n/a	211131	KeyDown	41324	3	Middle	17
352.1166666666667	0	n/a	211271	KeyDown	41324	2	Ring	17
352.2866666666667	0	n/a	211373	KeyDown	41324	4	Index	17
352.6166666666667	0	n/a	211571	KeyDown	41324	4	Index	17
352.7750000000000	0	n/a	211666	KeyDown	41324	1	Little	17
353.0450000000000	0	n/a	211828	KeyDown	41324	3	Middle	17
353.2516666666667	0	n/a	211952	KeyDown	41324	2	Ring	17
353.4283333333333	0	n/a	212058	KeyDown	41324	4	Index	17
353.7250000000000	0	n/a	212236	KeyDown	41324	4	Index	17
353.9183333333334	0	n/a	212352	KeyDown	41324	1	Little	17
354.5683333333333	0	n/a	212742	KeyDown	41324	3	Middle	17
354.7350000000000	0	n/a	212842	KeyDown	41324	2	Ring	17
355.0016666666667	0	n/a	213002	KeyDown	41324	4	Index	17
355.3116666666667	0	n/a	213188	KeyDown	41324	4	Index	17
356.0066666666667	0	n/a	213605	KeyDown	41324	1	Little	17
356.2066666666667	0	n/a	213725	KeyDown	41324	2	Ring	17
356.6300000000000	0	n/a	213979	KeyDown	41324	3	Middle	17
356.8616666666667	0	n/a	214118	KeyDown	41324	2	Ring	17
357.0133333333334	0	n/a	214209	KeyDown	41324	4	Index	17
357.2816666666667	0	n/a	214370	KeyDown	41324	4	Index	17
357.4183333333334	0	n/a	214452	StopPractice	41324	n/a	n/a	17
357.4200000000000	0	n/a	214453	StartRest	XXXXX	n/a	n/a	17
367.4533333333334	0	n/a	220473	StopRest	XXXXX	n/a	n/a	17
367.4550000000000	0	UPPT001	220474	StartPractice	41324	n/a	n/a	18
367.7783333333334	0	n/a	220668	KeyDown	41324	4	Index	18
367.9566666666667	0	n/a	220775	KeyDown	41324	1	Little	18
368.1433333333334	0	n/a	220887	KeyDown	41324	3	Middle	18
368.3233333333334	0	n/a	220995	KeyDown	41324	2	Ring	18
368.4600000000000	0	n/a	221077	KeyDown	41324	4	Index	18
368.8333333333334	0	n/a	221301	KeyDown	41324	4	Index	18
369.2416666666667	0	n/a	221546	KeyDown	41324	1	Little	18
369.6066666666667	0	n/a	221765	KeyDown	41324	3	Middle	18
369.7766666666667	0	n/a	221867	KeyDown	41324	2	Ring	18
369.9216666666667	0	n/a	221954	KeyDown	41324	4	Index	18
370.0733333333334	0	n/a	222045	KeyDown	41324	4	Index	18
370.2516666666667	0	n/a	222152	KeyDown	41324	1	Little	18
370.7033333333334	0	n/a	222423	KeyDown	41324	3	Middle	18
371.0966666666667	0	n/a	222659	KeyDown	41324	2	Ring	18
371.2666666666667	0	n/a	222761	KeyDown	41324	4	Index	18
371.5333333333334	0	n/a	222921	KeyDown	41324	4	Index	18
371.6833333333333	0	n/a	223011	KeyDown	41324	1	Little	18
372.0250000000000	0	n/a	223216	KeyDown	41324	3	Middle	18
372.2000000000000	0	n/a	223321	KeyDown	41324	2	Ring	18
372.3666666666667	0	n/a	223421	KeyDown	41324	4	Index	18
372.5816666666667	0	n/a	223550	KeyDown	41324	4	Index	18
372.7733333333334	0	n/a	223665	KeyDown	41324	1	Little	18
373.0383333333334	0	n/a	223824	KeyDown	41324	3	Middle	18
373.2866666666667	0	n/a	223973	KeyDown	41324	2	Ring	18
373.5266666666667	0	n/a	224117	KeyDown	41324	4	Index	18
373.8666666666667	0	n/a	224321	KeyDown	41324	4	Index	18
374.1316666666667	0	n/a	224480	KeyDown	41324	1	Little	18
374.6383333333334	0	n/a	224784	KeyDown	41324	3	Middle	18
374.8283333333334	0	n/a	224898	KeyDown	41324	2	Ring	18
375.0283333333334	0	n/a	225018	KeyDown	41324	4	Index	18
375.2650000000000	0	n/a	225160	KeyDown	41324	4	Index	18
375.9616666666667	0	n/a	225578	KeyDown	41324	1	Little	18
376.1516666666667	0	n/a	225692	KeyDown	41324	3	Middle	18
376.3716666666667	0	n/a	225824	KeyDown	41324	2	Ring	18
376.5683333333334	0	n/a	225942	KeyDown	41324	4	Index	18
376.8316666666667	0	n/a	226100	KeyDown	41324	4	Index	18
377.0116666666667	0	n/a	226208	KeyDown	41324	1	Little	18
377.3050000000000	0	n/a	226384	KeyDown	41324	3	Middle	18
377.4933333333333	0	n/a	226497	StopPractice	41324	n/a	n/a	18
377.4950000000000	0	n/a	226498	StartRest	XXXXX	n/a	n/a	18
387.5283333333334	0	n/a	232518	StopRest	XXXXX	n/a	n/a	18
387.5300000000000	0	UPPT001	232519	StartPractice	41324	n/a	n/a	19
387.8833333333334	0	n/a	232731	KeyDown	41324	4	Index	19
388.0766666666667	0	n/a	232847	KeyDown	41324	1	Little	19
388.2566666666667	0	n/a	232955	KeyDown	41324	3	Middle	19
388.4133333333334	0	n/a	233049	KeyDown	41324	2	Ring	19
388.5583333333333	0	n/a	233136	KeyDown	41324	4	Index	19
388.7566666666667	0	n/a	233255	KeyDown	41324	4	Index	19
388.9633333333334	0	n/a	233379	KeyDown	41324	1	Little	19
389.1866666666667	0	n/a	233513	KeyDown	41324	3	Middle	19
389.3983333333334	0	n/a	233640	KeyDown	41324	2	Ring	19
389.5666666666667	0	n/a	233741	KeyDown	41324	4	Index	19
389.9183333333334	0	n/a	233952	KeyDown	41324	4	Index	19
390.1716666666667	0	n/a	234104	KeyDown	41324	1	Little	19
390.3966666666667	0	n/a	234239	KeyDown	41324	3	Middle	19
390.6016666666667	0	n/a	234362	KeyDown	41324	2	Ring	19
390.7950000000000	0	n/a	234478	KeyDown	41324	4	Index	19
391.0883333333334	0	n/a	234654	KeyDown	41324	4	Index	19
391.2933333333334	0	n/a	234777	KeyDown	41324	1	Little	19
391.4866666666667	0	n/a	234893	KeyDown	41324	3	Middle	19
391.7416666666667	0	n/a	235046	KeyDown	41324	2	Ring	19
391.9383333333333	0	n/a	235164	KeyDown	41324	4	Index	19
392.2066666666667	0	n/a	235325	KeyDown	41324	4	Index	19
392.4450000000001	0	n/a	235468	KeyDown	41324	1	Little	19
392.6433333333334	0	n/a	235587	KeyDown	41324	3	Middle	19
393.0083333333334	0	n/a	235806	KeyDown	41324	2	Ring	19
393.1600000000000	0	n/a	235897	KeyDown	41324	4	Index	19
393.5533333333333	0	n/a	236133	KeyDown	41324	4	Index	19
393.7683333333334	0	n/a	236262	KeyDown	41324	1	Little	19
394.0166666666667	0	n/a	236411	KeyDown	41324	3	Middle	19
394.2116666666667	0	n/a	236528	KeyDown	41324	2	Ring	19
394.4133333333334	0	n/a	236649	KeyDown	41324	4	Index	19
394.6816666666667	0	n/a	236810	KeyDown	41324	4	Index	19
394.9350000000000	0	n/a	236962	KeyDown	41324	1	Little	19
395.2483333333333	0	n/a	237150	KeyDown	41324	3	Middle	19
395.5000000000000	0	n/a	237301	KeyDown	41324	2	Ring	19
395.6766666666667	0	n/a	237407	KeyDown	41324	4	Index	19
396.0116666666667	0	n/a	237608	KeyDown	41324	4	Index	19
396.2083333333334	0	n/a	237726	KeyDown	41324	1	Little	19
396.3983333333334	0	n/a	237840	KeyDown	41324	3	Middle	19
396.6166666666667	0	n/a	237971	KeyDown	41324	2	Ring	19
396.7733333333334	0	n/a	238065	KeyDown	41324	4	Index	19
397.0950000000000	0	n/a	238258	KeyDown	41324	4	Index	19
397.3550000000000	0	n/a	238414	KeyDown	41324	1	Little	19
397.5683333333334	0	n/a	238542	StopPractice	41324	n/a	n/a	19
397.5700000000001	0	n/a	238543	StartRest	XXXXX	n/a	n/a	19
407.6016666666667	0	n/a	244562	StopRest	XXXXX	n/a	n/a	19
407.6033333333334	0	UPPT001	244563	StartPractice	41324	n/a	n/a	20
408.0800000000000	0	n/a	244849	KeyDown	41324	4	Index	20
408.2716666666667	0	n/a	244964	KeyDown	41324	1	Little	20
408.4700000000000	0	n/a	245083	KeyDown	41324	3	Middle	20
408.6400000000000	0	n/a	245185	KeyDown	41324	2	Ring	20
408.7933333333334	0	n/a	245277	KeyDown	41324	4	Index	20
409.0250000000000	0	n/a	245416	KeyDown	41324	1	Little	20
409.6100000000000	0	n/a	245767	KeyDown	41324	4	Index	20
410.5616666666667	0	n/a	246338	KeyDown	41324	1	Little	20
410.7866666666667	0	n/a	246473	KeyDown	41324	3	Middle	20
410.9450000000001	0	n/a	246568	KeyDown	41324	2	Ring	20
411.1066666666667	0	n/a	246665	KeyDown	41324	4	Index	20
411.6650000000000	0	n/a	247000	KeyDown	41324	4	Index	20
411.9250000000000	0	n/a	247156	KeyDown	41324	1	Little	20
412.3450000000000	0	n/a	247408	KeyDown	41324	2	Ring	20
413.1533333333334	0	n/a	247893	KeyDown	41324	3	Middle	20
413.2850000000000	0	n/a	247972	KeyDown	41324	4	Index	20
413.4683333333334	0	n/a	248082	KeyDown	41324	4	Index	20
413.6416666666667	0	n/a	248186	KeyDown	41324	1	Little	20
413.9200000000000	0	n/a	248353	KeyDown	41324	3	Middle	20
414.0600000000000	0	n/a	248437	KeyDown	41324	2	Ring	20
414.2233333333334	0	n/a	248535	KeyDown	41324	4	Index	20
414.7083333333334	0	n/a	248826	KeyDown	41324	4	Index	20
415.1650000000000	0	n/a	249100	KeyDown	41324	1	Little	20
415.5050000000001	0	n/a	249304	KeyDown	41324	3	Middle	20
415.6600000000000	0	n/a	249397	KeyDown	41324	2	Ring	20
415.8466666666667	0	n/a	249509	KeyDown	41324	4	Index	20
416.1700000000000	0	n/a	249703	KeyDown	41324	4	Index	20
416.8466666666667	0	n/a	250109	KeyDown	41324	1	Little	20
417.0616666666667	0	n/a	250238	KeyDown	41324	3	Middle	20
417.3350000000000	0	n/a	250402	KeyDown	41324	2	Ring	20
417.4966666666667	0	n/a	250499	KeyDown	41324	4	Index	20
417.6416666666667	0	n/a	250586	StopPractice	41324	n/a	n/a	20
417.6433333333334	0	n/a	250587	StartRest	XXXXX	n/a	n/a	20
427.6783333333333	0	n/a	256608	StopRest	XXXXX	n/a	n/a	20
427.6800000000000	0	UPPT001	256609	StartPractice	41324	n/a	n/a	21
428.2033333333334	0	n/a	256923	KeyDown	41324	4	Index	21
428.3733333333333	0	n/a	257025	KeyDown	41324	1	Little	21
428.5916666666667	0	n/a	257156	KeyDown	41324	3	Middle	21
428.7783333333334	0	n/a	257268	KeyDown	41324	2	Ring	21
428.9150000000000	0	n/a	257350	KeyDown	41324	4	Index	21
429.1983333333334	0	n/a	257520	KeyDown	41324	4	Index	21
429.3916666666667	0	n/a	257636	KeyDown	41324	1	Little	21
429.7183333333334	0	n/a	257832	KeyDown	41324	3	Middle	21
429.8600000000000	0	n/a	257917	KeyDown	41324	2	Ring	21
430.0283333333334	0	n/a	258018	KeyDown	41324	4	Index	21
430.6033333333334	0	n/a	258363	KeyDown	41324	4	Index	21
430.8066666666667	0	n/a	258485	KeyDown	41324	1	Little	21
431.2366666666667	0	n/a	258743	KeyDown	41324	2	Ring	21
431.8283333333334	0	n/a	259098	KeyDown	41324	2	Ring	21
432.1133333333333	0	n/a	259269	KeyDown	41324	3	Middle	21
432.2666666666667	0	n/a	259361	KeyDown	41324	2	Ring	21
432.4866666666667	0	n/a	259493	KeyDown	41324	4	Index	21
432.7533333333334	0	n/a	259653	KeyDown	41324	4	Index	21
433.0500000000000	0	n/a	259831	KeyDown	41324	1	Little	21
433.3000000000000	0	n/a	259981	KeyDown	41324	3	Middle	21
433.4883333333333	0	n/a	260094	KeyDown	41324	2	Ring	21
433.6816666666667	0	n/a	260210	KeyDown	41324	4	Index	21
434.1733333333333	0	n/a	260505	KeyDown	41324	4	Index	21
434.8683333333333	0	n/a	260922	KeyDown	41324	1	Little	21
435.2366666666667	0	n/a	261143	KeyDown	41324	3	Middle	21
435.3816666666667	0	n/a	261230	KeyDown	41324	2	Ring	21
435.5616666666667	0	n/a	261338	KeyDown	41324	4	Index	21
435.8050000000000	0	n/a	261484	KeyDown	41324	4	Index	21
436.4783333333334	0	n/a	261888	KeyDown	41324	3	Middle	21
437.2233333333334	0	n/a	262335	KeyDown	41324	4	Index	21
437.3266666666667	0	n/a	262397	KeyDown	41324	1	Little	21
437.6316666666667	0	n/a	262580	KeyDown	41324	3	Middle	21
437.7183333333334	0	n/a	262632	StopPractice	41324	n/a	n/a	21
437.7200000000000	0	n/a	262633	StartRest	XXXXX	n/a	n/a	21
447.7533333333334	0	n/a	268653	StopRest	XXXXX	n/a	n/a	21
447.7550000000001	0	UPPT001	268654	StartPractice	41324	n/a	n/a	22
448.2550000000001	0	n/a	268954	KeyDown	41324	4	Index	22
448.4166666666667	0	n/a	269051	KeyDown	41324	1	Little	22
448.6033333333334	0	n/a	269163	KeyDown	41324	3	Middle	22
448.7716666666667	0	n/a	269264	KeyDown	41324	2	Ring	22
448.9250000000000	0	n/a	269356	KeyDown	41324	4	Index	22
449.1700000000000	0	n/a	269503	KeyDown	41324	1	Little	22
449.8116666666667	0	n/a	269888	KeyDown	41324	4	Index	22
450.1733333333333	0	n/a	270105	KeyDown	41324	1	Little	22
450.4516666666667	0	n/a	270272	KeyDown	41324	3	Middle	22
450.6183333333333	0	n/a	270372	KeyDown	41324	2	Ring	22
450.7933333333334	0	n/a	270477	KeyDown	41324	4	Index	22
451.0766666666667	0	n/a	270647	KeyDown	41324	4	Index	22
451.2350000000000	0	n/a	270742	KeyDown	41324	1	Little	22
451.6433333333334	0	n/a	270987	KeyDown	41324	3	Middle	22
451.8283333333334	0	n/a	271098	KeyDown	41324	2	Ring	22
452.0033333333334	0	n/a	271203	KeyDown	41324	4	Index	22
452.3066666666667	0	n/a	271385	KeyDown	41324	4	Index	22
452.4100000000000	0	n/a	271447	KeyDown	41324	1	Little	22
452.7900000000000	0	n/a	271675	KeyDown	41324	3	Middle	22
452.9533333333334	0	n/a	271773	KeyDown	41324	2	Ring	22
453.1416666666667	0	n/a	271886	KeyDown	41324	4	Index	22
453.4616666666667	0	n/a	272078	KeyDown	41324	4	Index	22
453.6283333333334	0	n/a	272178	KeyDown	41324	1	Little	22
453.8933333333334	0	n/a	272337	KeyDown	41324	3	Middle	22
454.0533333333333	0	n/a	272433	KeyDown	41324	2	Ring	22
454.2233333333334	0	n/a	272535	KeyDown	41324	4	Index	22
454.5016666666667	0	n/a	272702	KeyDown	41324	4	Index	22
454.7266666666667	0	n/a	272837	KeyDown	41324	1	Little	22
455.2700000000000	0	n/a	273163	KeyDown	41324	3	Middle	22
455.4316666666667	0	n/a	273260	KeyDown	41324	2	Ring	22
456.1283333333334	0	n/a	273678	KeyDown	41324	4	Index	22
456.3666666666667	0	n/a	273821	KeyDown	41324	4	Index	22
456.5500000000000	0	n/a	273931	KeyDown	41324	1	Little	22
456.8633333333333	0	n/a	274119	KeyDown	41324	3	Middle	22
457.0516666666667	0	n/a	274232	KeyDown	41324	2	Ring	22
457.2466666666667	0	n/a	274349	KeyDown	41324	4	Index	22
457.6366666666667	0	n/a	274583	KeyDown	41324	4	Index	22
457.7933333333334	0	n/a	274677	StopPractice	41324	n/a	n/a	22
457.7950000000000	0	n/a	274678	StartRest	XXXXX	n/a	n/a	22
467.8266666666667	0	n/a	280697	StopRest	XXXXX	n/a	n/a	22
467.8283333333334	0	UPPT001	280698	StartPractice	41324	n/a	n/a	23
468.1816666666667	0	n/a	280910	KeyDown	41324	4	Index	23
468.3583333333333	0	n/a	281016	KeyDown	41324	1	Little	23
468.5666666666667	0	n/a	281141	KeyDown	41324	3	Middle	23
468.7266666666667	0	n/a	281237	KeyDown	41324	2	Ring	23
468.9200000000000	0	n/a	281353	KeyDown	41324	4	Index	23
469.1550000000000	0	n/a	281494	KeyDown	41324	4	Index	23
469.3583333333333	0	n/a	281616	KeyDown	41324	1	Little	23
469.7866666666667	0	n/a	281873	KeyDown	41324	3	Middle	23
469.9700000000000	0	n/a	281983	KeyDown	41324	2	Ring	23
470.1683333333334	0	n/a	282102	KeyDown	41324	4	Index	23
470.4266666666667	0	n/a	282257	KeyDown	41324	4	Index	23
470.6083333333333	0	n/a	282366	KeyDown	41324	1	Little	23
470.9266666666667	0	n/a	282557	KeyDown	41324	2	Ring	23
471.6150000000000	0	n/a	282970	KeyDown	41324	3	Middle	23
471.7700000000000	0	n/a	283063	KeyDown	41324	2	Ring	23
472.0533333333333	0	n/a	283233	KeyDown	41324	4	Index	23
472.3000000000000	0	n/a	283381	KeyDown	41324	4	Index	23
472.8366666666667	0	n/a	283703	KeyDown	41324	1	Little	23
473.0850000000000	0	n/a	283852	KeyDown	41324	3	Middle	23
473.2750000000000	0	n/a	283966	KeyDown	41324	2	Ring	23
473.4816666666667	0	n/a	284090	KeyDown	41324	4	Index	23
473.7050000000000	0	n/a	284224	KeyDown	41324	4	Index	23
473.9650000000000	0	n/a	284380	KeyDown	41324	1	Little	23
474.3266666666667	0	n/a	284597	KeyDown	41324	3	Middle	23
474.6866666666667	0	n/a	284813	KeyDown	41324	2	Ring	23
474.9000000000000	0	n/a	284941	KeyDown	41324	4	Index	23
475.1166666666667	0	n/a	285071	KeyDown	41324	4	Index	23
475.6766666666667	0	n/a	285407	KeyDown	41324	1	Little	23
476.0450000000000	0	n/a	285628	KeyDown	41324	3	Middle	23
476.1800000000000	0	n/a	285709	KeyDown	41324	2	Ring	23
476.3800000000001	0	n/a	285829	KeyDown	41324	4	Index	23
476.7000000000000	0	n/a	286021	KeyDown	41324	4	Index	23
476.9666666666667	0	n/a	286181	KeyDown	41324	1	Little	23
477.2683333333334	0	n/a	286362	KeyDown	41324	3	Middle	23
477.6466666666667	0	n/a	286589	KeyDown	41324	2	Ring	23
477.8666666666667	0	n/a	286721	StopPractice	41324	n/a	n/a	23
477.8683333333333	0	n/a	286722	StartRest	XXXXX	n/a	n/a	23
487.9016666666667	0	n/a	292742	StopRest	XXXXX	n/a	n/a	23
487.9033333333334	0	UPPT001	292743	StartPractice	41324	n/a	n/a	24
488.3916666666667	0	n/a	293036	KeyDown	41324	4	Index	24
488.5850000000000	0	n/a	293152	KeyDown	41324	1	Little	24
488.7600000000000	0	n/a	293257	KeyDown	41324	3	Middle	24
488.9250000000000	0	n/a	293356	KeyDown	41324	2	Ring	24
489.0966666666667	0	n/a	293459	KeyDown	41324	4	Index	24
489.2683333333334	0	n/a	293562	KeyDown	41324	4	Index	24
489.4800000000000	0	n/a	293689	KeyDown	41324	4	Index	24
489.9866666666667	0	n/a	293993	KeyDown	41324	1	Little	24
490.3600000000000	0	n/a	294217	KeyDown	41324	3	Middle	24
490.5016666666667	0	n/a	294302	KeyDown	41324	2	Ring	24
490.6616666666667	0	n/a	294398	KeyDown	41324	4	Index	24
491.0616666666667	0	n/a	294638	KeyDown	41324	4	Index	24
491.3100000000001	0	n/a	294787	KeyDown	41324	1	Little	24
491.7750000000000	0	n/a	295066	KeyDown	41324	3	Middle	24
491.9216666666667	0	n/a	295154	KeyDown	41324	2	Ring	24
492.1216666666667	0	n/a	295274	KeyDown	41324	4	Index	24
492.3266666666667	0	n/a	295397	KeyDown	41324	4	Index	24
492.9666666666667	0	n/a	295781	KeyDown	41324	1	Little	24
493.3900000000000	0	n/a	296035	KeyDown	41324	3	Middle	24
493.6100000000000	0	n/a	296167	KeyDown	41324	2	Ring	24
493.8050000000000	0	n/a	296284	KeyDown	41324	4	Index	24
494.1350000000000	0	n/a	296482	KeyDown	41324	4	Index	24
495.5450000000000	0	n/a	297328	KeyDown	41324	2	Ring	24
495.5583333333333	0	n/a	297336	KeyDown	41324	1	Little	24
496.1866666666667	0	n/a	297713	KeyDown	41324	3	Middle	24
496.3216666666667	0	n/a	297794	KeyDown	41324	2	Ring	24
496.7150000000000	0	n/a	298030	KeyDown	41324	4	Index	24
496.9116666666667	0	n/a	298148	KeyDown	41324	4	Index	24
497.9416666666667	0	n/a	298766	StopPractice	41324	n/a	n/a	24
497.9433333333334	0	n/a	298767	StartRest	XXXXX	n/a	n/a	24
507.9766666666667	0	n/a	304787	StopRest	XXXXX	n/a	n/a	24
507.9783333333334	0	UPPT001	304788	StartPractice	41324	n/a	n/a	25
508.6883333333334	0	n/a	305214	KeyDown	41324	4	Index	25
508.8683333333333	0	n/a	305322	KeyDown	41324	1	Little	25
509.1733333333333	0	n/a	305505	KeyDown	41324	3	Middle	25
509.3050000000000	0	n/a	305584	KeyDown	41324	2	Ring	25
509.4516666666667	0	n/a	305672	KeyDown	41324	4	Index	25
509.7216666666667	0	n/a	305834	KeyDown	41324	4	Index	25
510.0366666666667	0	n/a	306023	KeyDown	41324	1	Little	25
510.3950000000000	0	n/a	306238	KeyDown	41324	3	Middle	25
510.5400000000000	0	n/a	306325	KeyDown	41324	2	Ring	25
510.7233333333334	0	n/a	306435	KeyDown	41324	4	Index	25
511.0133333333334	0	n/a	306609	KeyDown	41324	4	Index	25
511.2583333333334	0	n/a	306756	KeyDown	41324	1	Little	25
511.5266666666667	0	n/a	306917	KeyDown	41324	3	Middle	25
511.6966666666667	0	n/a	307019	KeyDown	41324	2	Ring	25
511.8666666666667	0	n/a	307121	KeyDown	41324	4	Index	25
512.1616666666667	0	n/a	307298	KeyDown	41324	4	Index	25
512.3866666666667	0	n/a	307433	KeyDown	41324	1	Little	25
512.6650000000001	0	n/a	307600	KeyDown	41324	3	Middle	25
512.8483333333334	0	n/a	307710	KeyDown	41324	2	Ring	25
513.0200000000000	0	n/a	307813	KeyDown	41324	4	Index	25
513.3100000000001	0	n/a	307987	KeyDown	41324	4	Index	25
513.7800000000001	0	n/a	308269	KeyDown	41324	1	Little	25
514.0016666666667	0	n/a	308402	KeyDown	41324	3	Middle	25
514.1716666666667	0	n/a	308504	KeyDown	41324	2	Ring	25
514.3333333333334	0	n/a	308601	KeyDown	41324	4	Index	25
514.5850000000000	0	n/a	308752	KeyDown	41324	4	Index	25
514.7816666666668	0	n/a	308870	KeyDown	41324	1	Little	25
515.1900000000001	0	n/a	309115	KeyDown	41324	3	Middle	25
515.3583333333333	0	n/a	309216	KeyDown	41324	2	Ring	25
515.5050000000000	0	n/a	309304	KeyDown	41324	4	Index	25
515.8050000000001	0	n/a	309484	KeyDown	41324	4	Index	25
516.0316666666668	0	n/a	309620	KeyDown	41324	1	Little	25
516.4050000000001	0	n/a	309844	KeyDown	41324	3	Middle	25
516.5600000000001	0	n/a	309937	KeyDown	41324	2	Ring	25
516.7066666666667	0	n/a	310025	KeyDown	41324	4	Index	25
517.0150000000000	0	n/a	310210	KeyDown	41324	4	Index	25
517.5666666666667	0	n/a	310541	KeyDown	41324	1	Little	25
517.8016666666667	0	n/a	310682	KeyDown	41324	3	Middle	25
518.0166666666667	0	n/a	310811	StopPractice	41324	n/a	n/a	25
518.0183333333333	0	n/a	310812	StartRest	XXXXX	n/a	n/a	25
528.0516666666667	0	n/a	316832	StopRest	XXXXX	n/a	n/a	25
528.0533333333334	0	UPPT001	316833	StartPractice	41324	n/a	n/a	26
528.4333333333334	0	n/a	317061	KeyDown	41324	4	Index	26
528.5883333333334	0	n/a	317154	KeyDown	41324	1	Little	26
528.7566666666667	0	n/a	317255	KeyDown	41324	3	Middle	26
528.9166666666667	0	n/a	317351	KeyDown	41324	2	Ring	26
529.0816666666667	0	n/a	317450	KeyDown	41324	4	Index	26
529.2950000000001	0	n/a	317578	KeyDown	41324	4	Index	26
529.6416666666667	0	n/a	317786	KeyDown	41324	3	Middle	26
530.2600000000000	0	n/a	318157	KeyDown	41324	4	Index	26
530.4250000000001	0	n/a	318256	KeyDown	41324	1	Little	26
530.8316666666667	0	n/a	318500	KeyDown	41324	3	Middle	26
530.9933333333333	0	n/a	318597	KeyDown	41324	2	Ring	26
531.1450000000000	0	n/a	318688	KeyDown	41324	4	Index	26
531.3766666666667	0	n/a	318827	KeyDown	41324	4	Index	26
531.5516666666667	0	n/a	318932	KeyDown	41324	1	Little	26
531.8900000000000	0	n/a	319135	KeyDown	41324	3	Middle	26
532.0583333333334	0	n/a	319236	KeyDown	41324	2	Ring	26
532.2000000000000	0	n/a	319321	KeyDown	41324	4	Index	26
532.5350000000001	0	n/a	319522	KeyDown	41324	4	Index	26
532.7100000000000	0	n/a	319627	KeyDown	41324	1	Little	26
533.2466666666667	0	n/a	319949	KeyDown	41324	3	Middle	26
533.3766666666667	0	n/a	320027	KeyDown	41324	2	Ring	26
533.5383333333334	0	n/a	320124	KeyDown	41324	4	Index	26
533.8916666666667	0	n/a	320336	KeyDown	41324	4	Index	26
534.0850000000000	0	n/a	320452	KeyDown	41324	1	Little	26
534.3950000000000	0	n/a	320638	KeyDown	41324	3	Middle	26
534.5616666666667	0	n/a	320738	KeyDown	41324	2	Ring	26
534.7116666666667	0	n/a	320828	KeyDown	41324	4	Index	26
534.9950000000000	0	n/a	320998	KeyDown	41324	4	Index	26
535.4550000000000	0	n/a	321274	KeyDown	41324	1	Little	26
535.6433333333333	0	n/a	321387	KeyDown	41324	3	Middle	26
535.8683333333333	0	n/a	321522	KeyDown	41324	2	Ring	26
536.0200000000000	0	n/a	321613	KeyDown	41324	4	Index	26
536.3050000000001	0	n/a	321784	KeyDown	41324	4	Index	26
536.9466666666667	0	n/a	322169	KeyDown	41324	1	Little	26
537.1900000000001	0	n/a	322315	KeyDown	41324	3	Middle	26
537.3450000000000	0	n/a	322408	KeyDown	41324	2	Ring	26
537.5083333333333	0	n/a	322506	KeyDown	41324	4	Index	26
537.8516666666667	0	n/a	322712	KeyDown	41324	4	Index	26
538.0916666666667	0	n/a	322856	StopPractice	41324	n/a	n/a	26
538.0933333333334	0	n/a	322857	StartRest	XXXXX	n/a	n/a	26
548.1266666666667	0	n/a	328877	StopRest	XXXXX	n/a	n/a	26
548.1283333333333	0	UPPT001	328878	StartPractice	41324	n/a	n/a	27
548.5466666666667	0	n/a	329129	KeyDown	41324	4	Index	27
548.7916666666667	0	n/a	329276	KeyDown	41324	1	Little	27
548.9216666666667	0	n/a	329354	KeyDown	41324	3	Middle	27
549.1333333333333	0	n/a	329481	KeyDown	41324	2	Ring	27
549.2266666666667	0	n/a	329537	KeyDown	41324	4	Index	27
549.4366666666667	0	n/a	329663	KeyDown	41324	4	Index	27
550.1666666666667	0	n/a	330101	KeyDown	41324	1	Little	27
550.3866666666667	0	n/a	330233	KeyDown	41324	3	Middle	27
550.5466666666667	0	n/a	330329	KeyDown	41324	2	Ring	27
550.7016666666667	0	n/a	330422	KeyDown	41324	4	Index	27
550.8816666666667	0	n/a	330530	KeyDown	41324	4	Index	27
551.3016666666667	0	n/a	330782	KeyDown	41324	3	Middle	27
551.4866666666667	0	n/a	330893	KeyDown	41324	2	Ring	27
552.1933333333334	0	n/a	331317	KeyDown	41324	4	Index	27
552.3450000000000	0	n/a	331408	KeyDown	41324	1	Little	27
552.5666666666667	0	n/a	331541	KeyDown	41324	3	Middle	27
552.7450000000000	0	n/a	331648	KeyDown	41324	2	Ring	27
552.9566666666667	0	n/a	331775	KeyDown	41324	4	Index	27
553.2700000000000	0	n/a	331963	KeyDown	41324	4	Index	27
553.5516666666667	0	n/a	332132	KeyDown	41324	1	Little	27
553.9316666666667	0	n/a	332360	KeyDown	41324	3	Middle	27
554.0900000000000	0	n/a	332455	KeyDown	41324	2	Ring	27
554.2583333333333	0	n/a	332556	KeyDown	41324	4	Index	27
554.6216666666667	0	n/a	332774	KeyDown	41324	4	Index	27
554.9250000000001	0	n/a	332956	KeyDown	41324	1	Little	27
555.1800000000001	0	n/a	333109	KeyDown	41324	3	Middle	27
555.3550000000000	0	n/a	333214	KeyDown	41324	2	Ring	27
555.4983333333333	0	n/a	333300	KeyDown	41324	4	Index	27
555.7850000000001	0	n/a	333472	KeyDown	41324	4	Index	27
555.9733333333334	0	n/a	333585	KeyDown	41324	1	Little	27
556.2916666666667	0	n/a	333776	KeyDown	41324	3	Middle	27
556.4500000000000	0	n/a	333871	KeyDown	41324	2	Ring	27
556.6083333333333	0	n/a	333966	KeyDown	41324	4	Index	27
556.8533333333334	0	n/a	334113	KeyDown	41324	4	Index	27
557.1700000000001	0	n/a	334303	KeyDown	41324	1	Little	27
557.4333333333334	0	n/a	334461	KeyDown	41324	3	Middle	27
557.7450000000000	0	n/a	334648	KeyDown	41324	2	Ring	27
557.9233333333334	0	n/a	334755	KeyDown	41324	4	Index	27
558.1666666666667	0	n/a	334901	StopPractice	41324	n/a	n/a	27
558.1683333333334	0	n/a	334902	StartRest	XXXXX	n/a	n/a	27
568.2016666666667	0	n/a	340922	StopRest	XXXXX	n/a	n/a	27
568.2033333333334	0	UPPT001	340923	StartPractice	41324	n/a	n/a	28
568.5500000000001	0	n/a	341131	KeyDown	41324	4	Index	28
568.7066666666667	0	n/a	341225	KeyDown	41324	1	Little	28
568.8900000000000	0	n/a	341335	KeyDown	41324	3	Middle	28
569.0316666666668	0	n/a	341420	KeyDown	41324	2	Ring	28
569.1733333333334	0	n/a	341505	KeyDown	41324	4	Index	28
569.4316666666667	0	n/a	341660	KeyDown	41324	4	Index	28
569.5916666666667	0	n/a	341756	KeyDown	41324	1	Little	28
569.7816666666668	0	n/a	341870	KeyDown	41324	3	Middle	28
570.1250000000000	0	n/a	342076	KeyDown	41324	2	Ring	28
570.3066666666667	0	n/a	342185	KeyDown	41324	4	Index	28
570.6050000000000	0	n/a	342364	KeyDown	41324	4	Index	28
570.7450000000000	0	n/a	342448	KeyDown	41324	1	Little	28
571.0550000000001	0	n/a	342634	KeyDown	41324	3	Middle	28
571.3150000000001	0	n/a	342790	KeyDown	41324	2	Ring	28
571.4666666666667	0	n/a	342881	KeyDown	41324	4	Index	28
571.7750000000001	0	n/a	343066	KeyDown	41324	4	Index	28
571.9316666666667	0	n/a	343160	KeyDown	41324	1	Little	28
572.4200000000001	0	n/a	343453	KeyDown	41324	3	Middle	28
572.5566666666667	0	n/a	343535	KeyDown	41324	2	Ring	28
573.1383333333333	0	n/a	343884	KeyDown	41324	4	Index	28
573.5116666666667	0	n/a	344108	KeyDown	41324	4	Index	28
573.7050000000000	0	n/a	344224	KeyDown	41324	1	Little	28
573.8983333333334	0	n/a	344340	KeyDown	41324	3	Middle	28
574.0583333333334	0	n/a	344436	KeyDown	41324	2	Ring	28
574.2200000000000	0	n/a	344533	KeyDown	41324	4	Index	28
574.5300000000001	0	n/a	344719	KeyDown	41324	4	Index	28
574.6983333333334	0	n/a	344820	KeyDown	41324	1	Little	28
575.1983333333334	0	n/a	345120	KeyDown	41324	3	Middle	28
575.3800000000000	0	n/a	345229	KeyDown	41324	2	Ring	28
575.5500000000001	0	n/a	345331	KeyDown	41324	4	Index	28
575.7183333333334	0	n/a	345432	KeyDown	41324	4	Index	28
575.9000000000001	0	n/a	345541	KeyDown	41324	1	Little	28
576.1950000000001	0	n/a	345718	KeyDown	41324	3	Middle	28
576.4300000000001	0	n/a	345859	KeyDown	41324	2	Ring	28
576.8000000000001	0	n/a	346081	KeyDown	41324	4	Index	28
577.0466666666667	0	n/a	346229	KeyDown	41324	4	Index	28
577.8233333333334	0	n/a	346695	KeyDown	41324	1	Little	28
578.0550000000001	0	n/a	346834	KeyDown	41324	3	Middle	28
578.2416666666667	0	n/a	346946	StopPractice	41324	n/a	n/a	28
578.2433333333333	0	n/a	346947	StartRest	XXXXX	n/a	n/a	28
588.2766666666668	0	n/a	352967	StopRest	XXXXX	n/a	n/a	28
588.2783333333334	0	UPPT001	352968	StartPractice	41324	n/a	n/a	29
588.6566666666668	0	n/a	353195	KeyDown	41324	4	Index	29
588.8200000000001	0	n/a	353293	KeyDown	41324	1	Little	29
588.9800000000000	0	n/a	353389	KeyDown	41324	3	Middle	29
589.1516666666668	0	n/a	353492	KeyDown	41324	2	Ring	29
589.2916666666667	0	n/a	353576	KeyDown	41324	4	Index	29
589.4666666666667	0	n/a	353681	KeyDown	41324	4	Index	29
589.6416666666667	0	n/a	353786	KeyDown	41324	1	Little	29
590.0833333333334	0	n/a	354051	KeyDown	41324	3	Middle	29
590.2416666666667	0	n/a	354146	KeyDown	41324	2	Ring	29
590.4000000000001	0	n/a	354241	KeyDown	41324	4	Index	29
590.6966666666667	0	n/a	354419	KeyDown	41324	1	Little	29
591.8950000000000	0	n/a	355138	KeyDown	41324	4	Index	29
592.5716666666667	0	n/a	355544	KeyDown	41324	4	Index	29
592.6983333333334	0	n/a	355620	KeyDown	41324	1	Little	29
593.0650000000001	0	n/a	355840	KeyDown	41324	3	Middle	29
593.2416666666667	0	n/a	355946	KeyDown	41324	2	Ring	29
593.3916666666667	0	n/a	356036	KeyDown	41324	4	Index	29
593.8766666666667	0	n/a	356327	KeyDown	41324	4	Index	29
594.0050000000000	0	n/a	356404	KeyDown	41324	1	Little	29
594.3066666666667	0	n/a	356585	KeyDown	41324	3	Middle	29
594.5166666666667	0	n/a	356711	KeyDown	41324	2	Ring	29
594.6800000000001	0	n/a	356809	KeyDown	41324	4	Index	29
594.9750000000000	0	n/a	356986	KeyDown	41324	4	Index	29
595.2400000000000	0	n/a	357145	KeyDown	41324	1	Little	29
595.4166666666667	0	n/a	357251	KeyDown	41324	3	Middle	29
595.6050000000000	0	n/a	357364	KeyDown	41324	2	Ring	29
595.7816666666668	0	n/a	357470	KeyDown	41324	4	Index	29
596.1816666666667	0	n/a	357710	KeyDown	41324	4	Index	29
596.3150000000001	0	n/a	357790	KeyDown	41324	1	Little	29
596.5350000000001	0	n/a	357922	KeyDown	41324	3	Middle	29
596.7300000000000	0	n/a	358039	KeyDown	41324	2	Ring	29
596.9466666666667	0	n/a	358169	KeyDown	41324	4	Index	29
597.2700000000000	0	n/a	358363	KeyDown	41324	4	Index	29
597.4916666666667	0	n/a	358496	KeyDown	41324	1	Little	29
597.6866666666667	0	n/a	358613	KeyDown	41324	3	Middle	29
597.9766666666667	0	n/a	358787	KeyDown	41324	2	Ring	29
598.1716666666667	0	n/a	358904	KeyDown	41324	4	Index	29
598.3166666666667	0	n/a	358991	StopPractice	41324	n/a	n/a	29
598.3183333333334	0	n/a	358992	StartRest	XXXXX	n/a	n/a	29
608.3516666666667	0	n/a	365012	StopRest	XXXXX	n/a	n/a	29
608.3533333333334	0	UPPT001	365013	StartPractice	41324	n/a	n/a	30
608.8466666666667	0	n/a	365309	KeyDown	41324	1	Little	30
609.7516666666667	0	n/a	365852	KeyDown	41324	4	Index	30
609.9866666666667	0	n/a	365993	KeyDown	41324	1	Little	30
611.0016666666667	0	n/a	366602	KeyDown	41324	3	Middle	30
611.1466666666668	0	n/a	366689	KeyDown	41324	2	Ring	30
611.3116666666667	0	n/a	366788	KeyDown	41324	4	Index	30
611.7550000000000	0	n/a	367054	KeyDown	41324	4	Index	30
611.8816666666667	0	n/a	367130	KeyDown	41324	1	Little	30
612.2400000000000	0	n/a	367345	KeyDown	41324	3	Middle	30
612.4050000000001	0	n/a	367444	KeyDown	41324	2	Ring	30
612.5466666666667	0	n/a	367529	KeyDown	41324	4	Index	30
612.7966666666667	0	n/a	367679	KeyDown	41324	4	Index	30
612.9300000000001	0	n/a	367759	KeyDown	41324	1	Little	30
613.2900000000001	0	n/a	367975	KeyDown	41324	3	Middle	30
613.5150000000000	0	n/a	368110	KeyDown	41324	2	Ring	30
613.6850000000001	0	n/a	368212	KeyDown	41324	4	Index	30
614.1133333333333	0	n/a	368469	KeyDown	41324	4	Index	30
614.3133333333334	0	n/a	368589	KeyDown	41324	1	Little	30
614.5850000000000	0	n/a	368752	KeyDown	41324	3	Middle	30
614.8766666666667	0	n/a	368927	KeyDown	41324	2	Ring	30
615.0600000000001	0	n/a	369037	KeyDown	41324	4	Index	30
615.2866666666667	0	n/a	369173	KeyDown	41324	4	Index	30
615.4666666666667	0	n/a	369281	KeyDown	41324	1	Little	30
615.6383333333333	0	n/a	369384	KeyDown	41324	3	Middle	30
615.9183333333334	0	n/a	369552	KeyDown	41324	2	Ring	30
616.0950000000000	0	n/a	369658	KeyDown	41324	4	Index	30
616.4216666666667	0	n/a	369854	KeyDown	41324	1	Little	30
616.9833333333333	0	n/a	370191	KeyDown	41324	4	Index	30
617.1166666666667	0	n/a	370271	KeyDown	41324	1	Little	30
617.4383333333334	0	n/a	370464	KeyDown	41324	2	Ring	30
617.6016666666667	0	n/a	370562	KeyDown	41324	4	Index	30
618.3916666666667	0	n/a	371036	StopPractice	41324	n/a	n/a	30
618.3933333333333	0	n/a	371037	StartRest	XXXXX	n/a	n/a	30
628.4266666666667	0	n/a	377057	StopRest	XXXXX	n/a	n/a	30
628.4283333333334	0	UPPT001	377058	StartPractice	41324	n/a	n/a	31
628.8083333333334	0	n/a	377286	KeyDown	41324	4	Index	31
628.9666666666667	0	n/a	377381	KeyDown	41324	1	Little	31
629.1350000000000	0	n/a	377482	KeyDown	41324	3	Middle	31
629.3683333333333	0	n/a	377622	KeyDown	41324	2	Ring	31
629.4950000000000	0	n/a	377698	KeyDown	41324	4	Index	31
629.6450000000001	0	n/a	377788	KeyDown	41324	4	Index	31
629.8066666666667	0	n/a	377885	KeyDown	41324	1	Little	31
630.2800000000001	0	n/a	378169	KeyDown	41324	3	Middle	31
630.4233333333334	0	n/a	378255	KeyDown	41324	2	Ring	31
630.5250000000001	0	n/a	378316	KeyDown	41324	4	Index	31
630.6900000000001	0	n/a	378415	KeyDown	41324	4	Index	31
631.1900000000001	0	n/a	378715	KeyDown	41324	4	Index	31
631.3400000000000	0	n/a	378805	KeyDown	41324	1	Little	31
631.7200000000000	0	n/a	379033	KeyDown	41324	3	Middle	31
631.9100000000001	0	n/a	379147	KeyDown	41324	2	Ring	31
632.0316666666668	0	n/a	379220	KeyDown	41324	4	Index	31
632.3533333333334	0	n/a	379413	KeyDown	41324	4	Index	31
632.5166666666667	0	n/a	379511	KeyDown	41324	1	Little	31
632.9000000000001	0	n/a	379741	KeyDown	41324	3	Middle	31
633.0583333333334	0	n/a	379836	KeyDown	41324	2	Ring	31
633.2000000000000	0	n/a	379921	KeyDown	41324	4	Index	31
633.5716666666667	0	n/a	380144	KeyDown	41324	4	Index	31
633.7450000000000	0	n/a	380248	KeyDown	41324	1	Little	31
634.0100000000000	0	n/a	380407	KeyDown	41324	2	Ring	31
634.3216666666667	0	n/a	380594	KeyDown	41324	3	Middle	31
634.5316666666668	0	n/a	380720	KeyDown	41324	4	Index	31
634.8250000000000	0	n/a	380896	KeyDown	41324	4	Index	31
634.9700000000000	0	n/a	380983	KeyDown	41324	1	Little	31
635.3350000000000	0	n/a	381202	KeyDown	41324	3	Middle	31
635.4600000000000	0	n/a	381277	KeyDown	41324	2	Ring	31
635.6200000000000	0	n/a	381373	KeyDown	41324	4	Index	31
635.8850000000000	0	n/a	381532	KeyDown	41324	4	Index	31
636.0700000000001	0	n/a	381643	KeyDown	41324	1	Little	31
636.3333333333334	0	n/a	381801	KeyDown	41324	3	Middle	31
636.5100000000000	0	n/a	381907	KeyDown	41324	2	Ring	31
636.6800000000001	0	n/a	382009	KeyDown	41324	4	Index	31
636.9566666666667	0	n/a	382175	KeyDown	41324	4	Index	31
637.1466666666668	0	n/a	382289	KeyDown	41324	1	Little	31
637.3700000000000	0	n/a	382423	KeyDown	41324	3	Middle	31
637.6516666666668	0	n/a	382592	KeyDown	41324	2	Ring	31
637.8100000000001	0	n/a	382687	KeyDown	41324	4	Index	31
638.1300000000000	0	n/a	382879	KeyDown	41324	4	Index	31
638.4666666666667	0	n/a	383081	StopPractice	41324	n/a	n/a	31
638.4683333333334	0	n/a	383082	StartRest	XXXXX	n/a	n/a	31
648.5000000000000	0	n/a	389101	StopRest	XXXXX	n/a	n/a	31
648.5016666666667	0	UPPT001	389102	StartPractice	41324	n/a	n/a	32
648.9100000000001	0	n/a	389347	KeyDown	41324	4	Index	32
649.4083333333334	0	n/a	389646	KeyDown	41324	1	Little	32
649.7900000000001	0	n/a	389875	KeyDown	41324	3	Middle	32
649.9983333333333	0	n/a	390000	KeyDown	41324	2	Ring	32
650.1683333333334	0	n/a	390102	KeyDown	41324	4	Index	32
650.6300000000000	0	n/a	390379	KeyDown	41324	4	Index	32
650.7566666666667	0	n/a	390455	KeyDown	41324	1	Little	32
650.9750000000000	0	n/a	390586	KeyDown	41324	3	Middle	32
651.1400000000000	0	n/a	390685	KeyDown	41324	2	Ring	32
651.2800000000001	0	n/a	390769	KeyDown	41324	4	Index	32
651.6683333333334	0	n/a	391002	KeyDown	41324	4	Index	32
651.8250000000000	0	n/a	391096	KeyDown	41324	1	Little	32
652.0933333333334	0	n/a	391257	KeyDown	41324	3	Middle	32
652.2533333333333	0	n/a	391353	KeyDown	41324	2	Ring	32
652.4533333333334	0	n/a	391473	KeyDown	41324	4	Index	32
652.8700000000000	0	n/a	391723	KeyDown	41324	4	Index	32
653.0083333333333	0	n/a	391806	KeyDown	41324	1	Little	32
653.3216666666667	0	n/a	391994	KeyDown	41324	3	Middle	32
653.4783333333334	0	n/a	392088	KeyDown	41324	2	Ring	32
653.6350000000000	0	n/a	392182	KeyDown	41324	4	Index	32
653.8600000000000	0	n/a	392317	KeyDown	41324	4	Index	32
653.9900000000000	0	n/a	392395	KeyDown	41324	1	Little	32
654.1950000000001	0	n/a	392518	KeyDown	41324	3	Middle	32
654.3983333333334	0	n/a	392640	KeyDown	41324	2	Ring	32
654.5350000000001	0	n/a	392722	KeyDown	41324	4	Index	32
654.8750000000000	0	n/a	392926	KeyDown	41324	1	Little	32
655.2983333333334	0	n/a	393180	KeyDown	41324	4	Index	32
655.4550000000000	0	n/a	393274	KeyDown	41324	1	Little	32
655.9500000000000	0	n/a	393571	KeyDown	41324	2	Ring	32
656.1266666666667	0	n/a	393677	KeyDown	41324	3	Middle	32
656.2833333333334	0	n/a	393771	KeyDown	41324	4	Index	32
656.6700000000001	0	n/a	394003	KeyDown	41324	4	Index	32
656.8600000000000	0	n/a	394117	KeyDown	41324	1	Little	32
658.1233333333333	0	n/a	394875	KeyDown	41324	3	Middle	32
658.2933333333334	0	n/a	394977	KeyDown	41324	2	Ring	32
658.4900000000000	0	n/a	395095	KeyDown	41324	4	Index	32
658.5400000000001	0	n/a	395125	StopPractice	41324	n/a	n/a	32
658.5416666666667	0	n/a	395126	StartRest	XXXXX	n/a	n/a	32
668.5750000000000	0	n/a	401146	StopRest	XXXXX	n/a	n/a	32
668.5766666666667	0	UPPT001	401147	StartPractice	41324	n/a	n/a	33
669.0583333333334	0	n/a	401436	KeyDown	41324	4	Index	33
669.5100000000000	0	n/a	401707	KeyDown	41324	1	Little	33
669.8900000000000	0	n/a	401935	KeyDown	41324	3	Middle	33
670.2700000000001	0	n/a	402163	KeyDown	41324	2	Ring	33
670.4483333333334	0	n/a	402270	KeyDown	41324	4	Index	33
670.8633333333333	0	n/a	402519	KeyDown	41324	4	Index	33
671.3233333333334	0	n/a	402795	KeyDown	41324	1	Little	33
671.9583333333334	0	n/a	403176	KeyDown	41324	3	Middle	33
672.1550000000001	0	n/a	403294	KeyDown	41324	2	Ring	33
672.3333333333334	0	n/a	403401	KeyDown	41324	4	Index	33
672.4833333333333	0	n/a	403491	KeyDown	41324	4	Index	33
672.6500000000001	0	n/a	403591	KeyDown	41324	1	Little	33
673.0650000000001	0	n/a	403840	KeyDown	41324	3	Middle	33
673.2150000000000	0	n/a	403930	KeyDown	41324	2	Ring	33
673.3850000000000	0	n/a	404032	KeyDown	41324	4	Index	33
673.7250000000000	0	n/a	404236	KeyDown	41324	4	Index	33
673.8866666666667	0	n/a	404333	KeyDown	41324	1	Little	33
674.2566666666667	0	n/a	404555	KeyDown	41324	3	Middle	33
674.4216666666667	0	n/a	404654	KeyDown	41324	2	Ring	33
674.5650000000001	0	n/a	404740	KeyDown	41324	4	Index	33
674.7383333333333	0	n/a	404844	KeyDown	41324	4	Index	33
674.9233333333334	0	n/a	404955	KeyDown	41324	1	Little	33
675.2150000000000	0	n/a	405130	KeyDown	41324	2	Ring	33
676.3066666666667	0	n/a	405785	KeyDown	41324	3	Middle	33
676.4633333333334	0	n/a	405879	KeyDown	41324	2	Ring	33
676.6400000000001	0	n/a	405985	KeyDown	41324	4	Index	33
676.9983333333333	0	n/a	406200	KeyDown	41324	4	Index	33
677.1600000000001	0	n/a	406297	KeyDown	41324	1	Little	33
677.4583333333334	0	n/a	406476	KeyDown	41324	3	Middle	33
677.6333333333333	0	n/a	406581	KeyDown	41324	2	Ring	33
677.7933333333334	0	n/a	406677	KeyDown	41324	4	Index	33
678.1133333333333	0	n/a	406869	KeyDown	41324	4	Index	33
678.3133333333334	0	n/a	406989	KeyDown	41324	4	Index	33
678.5816666666667	0	n/a	407150	KeyDown	41324	1	Little	33
678.6150000000000	0	n/a	407170	StopPractice	41324	n/a	n/a	33
678.6166666666667	0	n/a	407171	StartRest	XXXXX	n/a	n/a	33
688.6500000000001	0	n/a	413191	StopRest	XXXXX	n/a	n/a	33
688.6516666666668	0	UPPT001	413192	StartPractice	41324	n/a	n/a	34
689.1250000000000	0	n/a	413476	KeyDown	41324	4	Index	34
689.3250000000000	0	n/a	413596	KeyDown	41324	1	Little	34
689.7266666666667	0	n/a	413837	KeyDown	41324	3	Middle	34
689.8566666666667	0	n/a	413915	KeyDown	41324	2	Ring	34
690.0116666666667	0	n/a	414008	KeyDown	41324	4	Index	34
690.2083333333334	0	n/a	414126	KeyDown	41324	4	Index	34
690.3750000000000	0	n/a	414226	KeyDown	41324	1	Little	34
690.7283333333334	0	n/a	414438	KeyDown	41324	3	Middle	34
690.8616666666667	0	n/a	414518	KeyDown	41324	2	Ring	34
691.0516666666667	0	n/a	414632	KeyDown	41324	4	Index	34
691.2066666666667	0	n/a	414725	KeyDown	41324	4	Index	34
691.4983333333333	0	n/a	414900	KeyDown	41324	1	Little	34
692.2150000000000	0	n/a	415330	KeyDown	41324	3	Middle	34
692.3966666666668	0	n/a	415439	KeyDown	41324	2	Ring	34
692.5766666666667	0	n/a	415547	KeyDown	41324	4	Index	34
692.8100000000001	0	n/a	415687	KeyDown	41324	4	Index	34
693.0133333333333	0	n/a	415809	KeyDown	41324	1	Little	34
693.2866666666667	0	n/a	415973	KeyDown	41324	3	Middle	34
693.4550000000000	0	n/a	416074	KeyDown	41324	2	Ring	34
693.6650000000001	0	n/a	416200	KeyDown	41324	4	Index	34
693.8433333333334	0	n/a	416307	KeyDown	41324	4	Index	34
693.9883333333333	0	n/a	416394	KeyDown	41324	4	Index	34
694.1933333333334	0	n/a	416517	KeyDown	41324	1	Little	34
694.4033333333334	0	n/a	416643	KeyDown	41324	3	Middle	34
694.5766666666667	0	n/a	416747	KeyDown	41324	2	Ring	34
694.9733333333334	0	n/a	416985	KeyDown	41324	4	Index	34
695.1666666666667	0	n/a	417101	KeyDown	41324	4	Index	34
695.4283333333334	0	n/a	417258	KeyDown	41324	1	Little	34
695.6533333333334	0	n/a	417393	KeyDown	41324	3	Middle	34
695.9183333333334	0	n/a	417552	KeyDown	41324	2	Ring	34
696.1433333333334	0	n/a	417687	KeyDown	41324	4	Index	34
696.3133333333334	0	n/a	417789	KeyDown	41324	4	Index	34
696.9583333333334	0	n/a	418176	KeyDown	41324	1	Little	34
697.2800000000001	0	n/a	418369	KeyDown	41324	3	Middle	34
697.9650000000000	0	n/a	418780	KeyDown	41324	2	Ring	34
698.2633333333334	0	n/a	418959	KeyDown	41324	4	Index	34
698.6400000000001	0	n/a	419185	KeyDown	41324	4	Index	34
698.6900000000001	0	n/a	419215	StopPractice	41324	n/a	n/a	34
698.6916666666667	0	n/a	419216	StartRest	XXXXX	n/a	n/a	34
708.7250000000000	0	n/a	425236	StopRest	XXXXX	n/a	n/a	34
708.7266666666667	0	UPPT001	425237	StartPractice	41324	n/a	n/a	35
709.0650000000001	0	n/a	425440	KeyDown	41324	4	Index	35
709.3150000000001	0	n/a	425590	KeyDown	41324	1	Little	35
709.5266666666668	0	n/a	425717	KeyDown	41324	3	Middle	35
709.6900000000001	0	n/a	425815	KeyDown	41324	2	Ring	35
709.8600000000000	0	n/a	425917	KeyDown	41324	4	Index	35
710.1400000000001	0	n/a	426085	KeyDown	41324	4	Index	35
710.2733333333334	0	n/a	426165	KeyDown	41324	1	Little	35
710.4850000000000	0	n/a	426292	KeyDown	41324	3	Middle	35
710.7200000000000	0	n/a	426433	KeyDown	41324	2	Ring	35
710.9166666666667	0	n/a	426551	KeyDown	41324	4	Index	35
711.2400000000000	0	n/a	426745	KeyDown	41324	4	Index	35
711.4300000000001	0	n/a	426859	KeyDown	41324	1	Little	35
711.6200000000000	0	n/a	426973	KeyDown	41324	3	Middle	35
711.7966666666667	0	n/a	427079	KeyDown	41324	2	Ring	35
711.9866666666667	0	n/a	427193	KeyDown	41324	4	Index	35
712.2316666666667	0	n/a	427340	KeyDown	41324	4	Index	35
712.3900000000001	0	n/a	427435	KeyDown	41324	1	Little	35
712.5633333333334	0	n/a	427539	KeyDown	41324	3	Middle	35
712.7683333333334	0	n/a	427662	KeyDown	41324	2	Ring	35
712.9400000000001	0	n/a	427765	KeyDown	41324	4	Index	35
713.2500000000000	0	n/a	427951	KeyDown	41324	4	Index	35
713.4650000000000	0	n/a	428080	KeyDown	41324	1	Little	35
713.6583333333334	0	n/a	428196	KeyDown	41324	3	Middle	35
713.9200000000001	0	n/a	428353	KeyDown	41324	2	Ring	35
714.1266666666667	0	n/a	428477	KeyDown	41324	4	Index	35
714.4183333333334	0	n/a	428652	KeyDown	41324	4	Index	35
714.5900000000000	0	n/a	428755	KeyDown	41324	1	Little	35
715.0383333333334	0	n/a	429024	KeyDown	41324	3	Middle	35
715.2183333333334	0	n/a	429132	KeyDown	41324	2	Ring	35
715.4183333333334	0	n/a	429252	KeyDown	41324	4	Index	35
715.7700000000001	0	n/a	429463	KeyDown	41324	4	Index	35
715.9233333333334	0	n/a	429555	KeyDown	41324	1	Little	35
716.1933333333334	0	n/a	429717	KeyDown	41324	3	Middle	35
716.8400000000000	0	n/a	430105	KeyDown	41324	2	Ring	35
717.0233333333334	0	n/a	430215	KeyDown	41324	4	Index	35
717.3133333333334	0	n/a	430389	KeyDown	41324	4	Index	35
717.5500000000001	0	n/a	430531	KeyDown	41324	1	Little	35
717.9583333333334	0	n/a	430776	KeyDown	41324	3	Middle	35
718.1683333333334	0	n/a	430902	KeyDown	41324	2	Ring	35
718.3500000000000	0	n/a	431011	KeyDown	41324	4	Index	35
718.5750000000000	0	n/a	431146	KeyDown	41324	4	Index	35
718.7650000000001	0	n/a	431260	StopPractice	41324	n/a	n/a	35
718.7666666666668	0	n/a	431261	StartRest	XXXXX	n/a	n/a	35
728.8000000000001	0	n/a	437281	StopRest	XXXXX	n/a	n/a	35
728.8016666666667	0	UPPT001	437282	StartPractice	41324	n/a	n/a	36
729.2933333333334	0	n/a	437577	KeyDown	41324	4	Index	36
729.4633333333334	0	n/a	437679	KeyDown	41324	1	Little	36
729.6266666666667	0	n/a	437777	KeyDown	41324	3	Middle	36
730.1583333333334	0	n/a	438096	KeyDown	41324	2	Ring	36
730.5333333333334	0	n/a	438321	KeyDown	41324	4	Index	36
730.7100000000000	0	n/a	438427	KeyDown	41324	4	Index	36
731.0150000000001	0	n/a	438610	KeyDown	41324	1	Little	36
731.1900000000001	0	n/a	438715	KeyDown	41324	3	Middle	36
731.3533333333334	0	n/a	438813	KeyDown	41324	2	Ring	36
731.5500000000001	0	n/a	438931	KeyDown	41324	4	Index	36
731.6900000000001	0	n/a	439015	KeyDown	41324	4	Index	36
731.8500000000000	0	n/a	439111	KeyDown	41324	1	Little	36
732.1366666666668	0	n/a	439283	KeyDown	41324	3	Middle	36
732.3816666666667	0	n/a	439430	KeyDown	41324	2	Ring	36
732.5400000000001	0	n/a	439525	KeyDown	41324	4	Index	36
732.8483333333334	0	n/a	439710	KeyDown	41324	4	Index	36
732.9983333333333	0	n/a	439800	KeyDown	41324	1	Little	36
733.3616666666667	0	n/a	440018	KeyDown	41324	3	Middle	36
733.5200000000001	0	n/a	440113	KeyDown	41324	2	Ring	36
733.6633333333334	0	n/a	440199	KeyDown	41324	4	Index	36
733.8066666666667	0	n/a	440285	KeyDown	41324	4	Index	36
733.9566666666667	0	n/a	440375	KeyDown	41324	1	Little	36
734.1433333333334	0	n/a	440487	KeyDown	41324	3	Middle	36
734.3000000000001	0	n/a	440581	KeyDown	41324	2	Ring	36
734.4933333333333	0	n/a	440697	KeyDown	41324	4	Index	36
734.6333333333333	0	n/a	440781	KeyDown	41324	4	Index	36
734.7966666666667	0	n/a	440879	KeyDown	41324	1	Little	36
735.0300000000001	0	n/a	441019	KeyDown	41324	3	Middle	36
735.2466666666667	0	n/a	441149	KeyDown	41324	2	Ring	36
735.4283333333334	0	n/a	441258	KeyDown	41324	4	Index	36
735.5633333333334	0	n/a	441339	KeyDown	41324	4	Index	36
735.7633333333334	0	n/a	441459	KeyDown	41324	1	Little	36
735.9300000000001	0	n/a	441559	KeyDown	41324	3	Middle	36
736.2950000000001	0	n/a	441778	KeyDown	41324	2	Ring	36
736.4250000000001	0	n/a	441856	KeyDown	41324	4	Index	36
736.5733333333334	0	n/a	441945	KeyDown	41324	4	Index	36
736.7466666666667	0	n/a	442049	KeyDown	41324	1	Little	36
736.9433333333334	0	n/a	442167	KeyDown	41324	3	Middle	36
737.2900000000001	0	n/a	442375	KeyDown	41324	2	Ring	36
737.4783333333334	0	n/a	442488	KeyDown	41324	4	Index	36
737.5983333333334	0	n/a	442560	KeyDown	41324	4	Index	36
737.7416666666667	0	n/a	442646	KeyDown	41324	1	Little	36
738.0100000000000	0	n/a	442807	KeyDown	41324	2	Ring	36
738.8400000000000	0	n/a	443305	StopPractice	41324	n/a	n/a	36
738.8416666666667	0	n/a	443306	StartRest	XXXXX	n/a	n/a	36
748.8766666666667	0	n/a	449327	StopRest	XXXXX	n/a	n/a	36
