onset	duration	channel	onset_sample_idx	event_type	target_sequence	keypress_id	finger_label	trial_number
16.4866666666667	0	UPPT001	9893	StartPractice	41324	n/a	n/a	1
18.0900000000000	0	n/a	10855	KeyDown	41324	4	Index	1
18.2416666666667	0	n/a	10946	KeyDown	41324	1	Little	1
18.7033333333333	0	n/a	11223	KeyDown	41324	3	Middle	1
19.0650000000000	0	n/a	11440	KeyDown	41324	2	Ring	1
19.2883333333333	0	n/a	11574	KeyDown	41324	4	Index	1
19.5500000000000	0	n/a	11731	KeyDown	41324	4	Index	1
19.9950000000000	0	n/a	11998	KeyDown	41324	1	Little	1
20.4616666666667	0	n/a	12278	KeyDown	41324	3	Middle	1
20.6750000000000	0	n/a	12406	KeyDown	41324	2	Ring	1
20.9366666666667	0	n/a	12563	KeyDown	41324	4	Index	1
21.1516666666667	0	n/a	12692	KeyDown	41324	4	Index	1
21.5383333333333	0	n/a	12924	KeyDown	41324	1	Little	1
21.9633333333333	0	n/a	13179	KeyDown	41324	3	Middle	1
22.2000000000000	0	n/a	13321	KeyDown	41324	2	Ring	1
23.7133333333333	0	n/a	14229	KeyDown	41324	4	Index	1
24.9933333333333	0	n/a	14997	KeyDown	41324	4	Index	1
25.1783333333333	0	n/a	15108	KeyDown	41324	1	Little	1
25.4883333333333	0	n/a	15294	KeyDown	41324	3	Middle	1
25.7733333333333	0	n/a	15465	KeyDown	41324	2	Ring	1
26.4166666666667	0	n/a	15851	KeyDown	41324	4	Index	1
26.5333333333333	0	n/a	15921	StopPractice	41324	n/a	n/a	1
26.5350000000000	0	n/a	15922	StartRest	XXXXX	n/a	n/a	1
36.5533333333333	0	n/a	21933	StopRest	XXXXX	n/a	n/a	1
36.5550000000000	0	UPPT001	21934	StartPractice	41324	n/a	n/a	2
37.6716666666667	0	n/a	22604	KeyDown	41324	4	Index	2
37.8450000000000	0	n/a	22708	KeyDown	41324	1	Little	2
38.1133333333333	0	n/a	22869	KeyDown	41324	3	Middle	2
38.2633333333333	0	n/a	22959	KeyDown	41324	2	Ring	2
38.4066666666667	0	n/a	23045	KeyDown	41324	4	Index	2
38.6316666666667	0	n/a	23180	KeyDown	41324	4	Index	2
38.8550000000000	0	n/a	23314	KeyDown	41324	1	Little	2
39.2916666666667	0	n/a	23576	KeyDown	41324	3	Middle	2
39.4266666666667	0	n/a	23657	KeyDown	41324	2	Ring	2
39.5783333333333	0	n/a	23748	KeyDown	41324	4	Index	2
39.8133333333333	0	n/a	23889	KeyDown	41324	4	Index	2
40.0016666666667	0	n/a	24002	KeyDown	41324	1	Little	2
40.2183333333333	0	n/a	24132	KeyDown	41324	3	Middle	2
40.3716666666667	0	n/a	24224	KeyDown	41324	2	Ring	2
40.7050000000000	0	n/a	24424	KeyDown	41324	4	Index	2
40.9750000000000	0	n/a	24586	KeyDown	41324	4	Index	2
41.1833333333333	0	n/a	24711	KeyDown	41324	1	Little	2
41.7250000000000	0	n/a	25036	KeyDown	41324	3	Middle	2
41.8350000000000	0	n/a	25102	KeyDown	41324	2	Ring	2
42.0016666666667	0	n/a	25202	KeyDown	41324	4	Index	2
42.2566666666667	0	n/a	25355	KeyDown	41324	4	Index	2
42.4300000000000	0	n/a	25459	KeyDown	41324	1	Little	2
42.7000000000000	0	n/a	25621	KeyDown	41324	3	Middle	2
42.8383333333333	0	n/a	25704	KeyDown	41324	2	Ring	2
42.9766666666667	0	n/a	25787	KeyDown	41324	4	Index	2
43.2133333333333	0	n/a	25929	KeyDown	41324	4	Index	2
43.4083333333333	0	n/a	26046	KeyDown	41324	1	Little	2
43.6583333333333	0	n/a	26196	KeyDown	41324	3	Middle	2
43.8400000000000	0	n/a	26305	KeyDown	41324	2	Ring	2
43.9900000000000	0	n/a	26395	KeyDown	41324	4	Index	2
44.2466666666667	0	n/a	26549	KeyDown	41324	4	Index	2
44.3833333333333	0	n/a	26631	KeyDown	41324	1	Little	2
44.6533333333333	0	n/a	26793	KeyDown	41324	3	Middle	2
44.8133333333333	0	n/a	26889	KeyDown	41324	2	Ring	2
44.9650000000000	0	n/a	26980	KeyDown	41324	4	Index	2
44.9783333333333	0	n/a	26988	KeyDown	41324	1	Little	2
46.0883333333333	0	n/a	27654	KeyDown	41324	4	Index	2
46.3166666666667	0	n/a	27791	KeyDown	41324	1	Little	2
46.6016666666667	0	n/a	27962	StopPractice	41324	n/a	n/a	2
46.6033333333333	0	n/a	27963	StartRest	XXXXX	n/a	n/a	2
56.6266666666667	0	n/a	33977	StopRest	XXXXX	n/a	n/a	2
56.6283333333333	0	UPPT001	33978	StartPractice	41324	n/a	n/a	3
57.3800000000000	0	n/a	34429	KeyDown	41324	4	Index	3
57.5200000000000	0	n/a	34513	KeyDown	41324	1	Little	3
57.7250000000000	0	n/a	34636	KeyDown	41324	3	Middle	3
58.1000000000000	0	n/a	34861	KeyDown	41324	2	Ring	3
58.3200000000000	0	n/a	34993	KeyDown	41324	4	Index	3
58.5400000000000	0	n/a	35125	KeyDown	41324	4	Index	3
58.8933333333333	0	n/a	35337	KeyDown	41324	1	Little	3
59.2783333333333	0	n/a	35568	KeyDown	41324	3	Middle	3
59.4933333333333	0	n/a	35697	KeyDown	41324	2	Ring	3
59.6750000000000	0	n/a	35806	KeyDown	41324	4	Index	3
59.9100000000000	0	n/a	35947	KeyDown	41324	4	Index	3
60.1200000000000	0	n/a	36073	KeyDown	41324	1	Little	3
60.3200000000000	0	n/a	36193	KeyDown	41324	3	Middle	3
60.4966666666667	0	n/a	36299	KeyDown	41324	2	Ring	3
60.6816666666667	0	n/a	36410	KeyDown	41324	4	Index	3
60.9016666666667	0	n/a	36542	KeyDown	41324	4	Index	3
61.2850000000000	0	n/a	36772	KeyDown	41324	1	Little	3
61.5216666666667	0	n/a	36914	KeyDown	41324	3	Middle	3
61.7050000000000	0	n/a	37024	KeyDown	41324	2	Ring	3
61.9000000000000	0	n/a	37141	KeyDown	41324	4	Index	3
62.1450000000000	0	n/a	37288	KeyDown	41324	4	Index	3
63.2783333333333	0	n/a	37968	KeyDown	41324	2	Ring	3
63.5450000000000	0	n/a	38128	KeyDown	41324	3	Middle	3
63.7983333333333	0	n/a	38280	KeyDown	41324	1	Little	3
64.6400000000000	0	n/a	38785	KeyDown	41324	4	Index	3
64.8550000000000	0	n/a	38914	KeyDown	41324	1	Little	3
65.4800000000000	0	n/a	39289	KeyDown	41324	3	Middle	3
65.6100000000000	0	n/a	39367	KeyDown	41324	2	Ring	3
65.7933333333333	0	n/a	39477	KeyDown	41324	4	Index	3
66.0550000000000	0	n/a	39634	KeyDown	41324	4	Index	3
66.6750000000000	0	n/a	40006	StopPractice	41324	n/a	n/a	3
66.6766666666667	0	n/a	40007	StartRest	XXXXX	n/a	n/a	3
76.7016666666667	0	n/a	46022	StopRest	XXXXX	n/a	n/a	3
76.7033333333333	0	UPPT001	46023	StartPractice	41324	n/a	n/a	4
77.3600000000000	0	n/a	46417	KeyDown	41324	4	Index	4
77.6083333333333	0	n/a	46566	KeyDown	41324	1	Little	4
77.8733333333333	0	n/a	46725	KeyDown	41324	3	Middle	4
78.0516666666667	0	n/a	46832	KeyDown	41324	2	Ring	4
78.2266666666667	0	n/a	46937	KeyDown	41324	4	Index	4
78.4416666666667	0	n/a	47066	KeyDown	41324	4	Index	4
78.7483333333333	0	n/a	47250	KeyDown	41324	1	Little	4
78.9800000000000	0	n/a	47389	KeyDown	41324	3	Middle	4
79.1366666666667	0	n/a	47483	KeyDown	41324	2	Ring	4
79.3250000000000	0	n/a	47596	KeyDown	41324	4	Index	4
79.5700000000000	0	n/a	47743	KeyDown	41324	4	Index	4
79.8550000000000	0	n/a	47914	KeyDown	41324	1	Little	4
80.1016666666667	0	n/a	48062	KeyDown	41324	3	Middle	4
80.2783333333333	0	n/a	48168	KeyDown	41324	2	Ring	4
80.4233333333333	0	n/a	48255	KeyDown	41324	4	Index	4
80.6566666666667	0	n/a	48395	KeyDown	41324	4	Index	4
81.1050000000000	0	n/a	48664	KeyDown	41324	1	Little	4
81.3566666666667	0	n/a	48815	KeyDown	41324	3	Middle	4
81.5316666666667	0	n/a	48920	KeyDown	41324	2	Ring	4
81.7116666666667	0	n/a	49028	KeyDown	41324	4	Index	4
81.9466666666667	0	n/a	49169	KeyDown	41324	4	Index	4
82.3516666666667	0	n/a	49412	KeyDown	41324	1	Little	4
82.6016666666667	0	n/a	49562	KeyDown	41324	3	Middle	4
82.7900000000000	0	n/a	49675	KeyDown	41324	2	Ring	4
82.9850000000000	0	n/a	49792	KeyDown	41324	4	Index	4
83.2000000000000	0	n/a	49921	KeyDown	41324	4	Index	4
83.5933333333333	0	n/a	50157	KeyDown	41324	1	Little	4
83.8400000000000	0	n/a	50305	KeyDown	41324	3	Middle	4
84.0150000000000	0	n/a	50410	KeyDown	41324	2	Ring	4
84.1800000000000	0	n/a	50509	KeyDown	41324	4	Index	4
84.4183333333333	0	n/a	50652	KeyDown	41324	4	Index	4
84.8150000000000	0	n/a	50890	KeyDown	41324	1	Little	4
85.0366666666667	0	n/a	51023	KeyDown	41324	3	Middle	4
85.2283333333333	0	n/a	51138	KeyDown	41324	2	Ring	4
85.3816666666667	0	n/a	51230	KeyDown	41324	4	Index	4
85.6183333333333	0	n/a	51372	KeyDown	41324	4	Index	4
85.8216666666667	0	n/a	51494	KeyDown	41324	1	Little	4
86.0200000000000	0	n/a	51613	KeyDown	41324	3	Middle	4
86.1616666666667	0	n/a	51698	KeyDown	41324	2	Ring	4
86.3183333333333	0	n/a	51792	KeyDown	41324	4	Index	4
86.5050000000000	0	n/a	51904	KeyDown	41324	4	Index	4
86.7116666666667	0	n/a	52028	KeyDown	41324	1	Little	4
86.7500000000000	0	n/a	52051	StopPractice	41324	n/a	n/a	4
86.7516666666667	0	n/a	52052	StartRest	XXXXX	n/a	n/a	4
96.7783333333333	0	n/a	58068	StopRest	XXXXX	n/a	n/a	4
96.7800000000000	0	UPPT001	58069	StartPractice	41324	n/a	n/a	5
97.4016666666667	0	n/a	58442	KeyDown	41324	4	Index	5
97.5783333333333	0	n/a	58548	KeyDown	41324	1	Little	5
97.7566666666667	0	n/a	58655	KeyDown	41324	3	Middle	5
97.8950000000000	0	n/a	58738	KeyDown	41324	2	Ring	5
98.0300000000000	0	n/a	58819	KeyDown	41324	4	Index	5
98.2400000000000	0	n/a	58945	KeyDown	41324	4	Index	5
98.4433333333333	0	n/a	59067	KeyDown	41324	1	Little	5
98.6250000000000	0	n/a	59176	KeyDown	41324	3	Middle	5
98.7683333333333	0	n/a	59262	KeyDown	41324	2	Ring	5
98.9116666666667	0	n/a	59348	KeyDown	41324	4	Index	5
99.1466666666667	0	n/a	59489	KeyDown	41324	4	Index	5
99.3766666666667	0	n/a	59627	KeyDown	41324	1	Little	5
99.6033333333333	0	n/a	59763	KeyDown	41324	3	Middle	5
99.7766666666667	0	n/a	59867	KeyDown	41324	2	Ring	5
99.9566666666667	0	n/a	59975	KeyDown	41324	4	Index	5
100.1766666666667	0	n/a	60107	KeyDown	41324	4	Index	5
100.3716666666667	0	n/a	60224	KeyDown	41324	1	Little	5
100.5683333333333	0	n/a	60342	KeyDown	41324	3	Middle	5
100.6983333333333	0	n/a	60420	KeyDown	41324	2	Ring	5
100.8516666666667	0	n/a	60512	KeyDown	41324	4	Index	5
101.5266666666667	0	n/a	60917	KeyDown	41324	4	Index	5
102.1750000000000	0	n/a	61306	KeyDown	41324	1	Little	5
102.4900000000000	0	n/a	61495	KeyDown	41324	3	Middle	5
102.6266666666667	0	n/a	61577	KeyDown	41324	2	Ring	5
102.8000000000000	0	n/a	61681	KeyDown	41324	4	Index	5
102.9833333333333	0	n/a	61791	KeyDown	41324	4	Index	5
103.1900000000000	0	n/a	61915	KeyDown	41324	1	Little	5
103.3633333333333	0	n/a	62019	KeyDown	41324	3	Middle	5
103.4916666666667	0	n/a	62096	KeyDown	41324	2	Ring	5
103.6300000000000	0	n/a	62179	KeyDown	41324	4	Index	5
103.8166666666667	0	n/a	62291	KeyDown	41324	4	Index	5
103.9883333333333	0	n/a	62394	KeyDown	41324	1	Little	5
104.1566666666667	0	n/a	62495	KeyDown	41324	3	Middle	5
104.2816666666667	0	n/a	62570	KeyDown	41324	2	Ring	5
104.4400000000000	0	n/a	62665	KeyDown	41324	4	Index	5
104.6183333333333	0	n/a	62772	KeyDown	41324	4	Index	5
104.7516666666667	0	n/a	62852	KeyDown	41324	1	Little	5
104.9500000000000	0	n/a	62971	KeyDown	41324	3	Middle	5
105.1000000000000	0	n/a	63061	KeyDown	41324	2	Ring	5
105.2516666666667	0	n/a	63152	KeyDown	41324	4	Index	5
105.4283333333333	0	n/a	63258	KeyDown	41324	4	Index	5
105.5783333333333	0	n/a	63348	KeyDown	41324	1	Little	5
105.8550000000000	0	n/a	63514	KeyDown	41324	3	Middle	5
105.9666666666667	0	n/a	63581	KeyDown	41324	2	Ring	5
106.1083333333333	0	n/a	63666	KeyDown	41324	4	Index	5
106.2916666666667	0	n/a	63776	KeyDown	41324	4	Index	5
106.4350000000000	0	n/a	63862	KeyDown	41324	1	Little	5
106.6616666666667	0	n/a	63998	KeyDown	41324	3	Middle	5
106.7933333333333	0	n/a	64077	KeyDown	41324	2	Ring	5
106.8266666666667	0	n/a	64097	StopPractice	41324	n/a	n/a	5
106.8283333333333	0	n/a	64098	StartRest	XXXXX	n/a	n/a	5
116.8683333333333	0	n/a	70122	StopRest	XXXXX	n/a	n/a	5
116.8700000000000	0	UPPT001	70123	StartPractice	41324	n/a	n/a	6
117.4983333333333	0	n/a	70500	KeyDown	41324	4	Index	6
117.6516666666667	0	n/a	70592	KeyDown	41324	1	Little	6
117.8383333333333	0	n/a	70704	KeyDown	41324	3	Middle	6
117.9883333333333	0	n/a	70794	KeyDown	41324	2	Ring	6
118.1283333333333	0	n/a	70878	KeyDown	41324	4	Index	6
118.3266666666667	0	n/a	70997	KeyDown	41324	4	Index	6
118.4900000000000	0	n/a	71095	KeyDown	41324	1	Little	6
118.6666666666667	0	n/a	71201	KeyDown	41324	3	Middle	6
118.8116666666667	0	n/a	71288	KeyDown	41324	2	Ring	6
118.9316666666667	0	n/a	71360	KeyDown	41324	4	Index	6
119.1816666666667	0	n/a	71510	KeyDown	41324	4	Index	6
119.3583333333333	0	n/a	71616	KeyDown	41324	1	Little	6
119.5400000000000	0	n/a	71725	KeyDown	41324	3	Middle	6
119.7116666666667	0	n/a	71828	KeyDown	41324	2	Ring	6
119.8500000000000	0	n/a	71911	KeyDown	41324	4	Index	6
120.0316666666667	0	n/a	72020	KeyDown	41324	4	Index	6
120.1716666666667	0	n/a	72104	KeyDown	41324	1	Little	6
120.3300000000000	0	n/a	72199	KeyDown	41324	3	Middle	6
120.4883333333333	0	n/a	72294	KeyDown	41324	2	Ring	6
120.6500000000000	0	n/a	72391	KeyDown	41324	4	Index	6
120.8316666666667	0	n/a	72500	KeyDown	41324	4	Index	6
120.9683333333333	0	n/a	72582	KeyDown	41324	1	Little	6
121.1466666666667	0	n/a	72689	KeyDown	41324	3	Middle	6
121.2983333333333	0	n/a	72780	KeyDown	41324	2	Ring	6
121.4283333333333	0	n/a	72858	KeyDown	41324	4	Index	6
121.6183333333333	0	n/a	72972	KeyDown	41324	4	Index	6
121.7633333333333	0	n/a	73059	KeyDown	41324	1	Little	6
121.9116666666667	0	n/a	73148	KeyDown	41324	3	Middle	6
122.0666666666667	0	n/a	73241	KeyDown	41324	2	Ring	6
122.1933333333333	0	n/a	73317	KeyDown	41324	4	Index	6
122.3716666666667	0	n/a	73424	KeyDown	41324	4	Index	6
122.5083333333333	0	n/a	73506	KeyDown	41324	1	Little	6
122.6716666666667	0	n/a	73604	KeyDown	41324	3	Middle	6
122.8233333333333	0	n/a	73695	KeyDown	41324	2	Ring	6
122.9583333333333	0	n/a	73776	KeyDown	41324	4	Index	6
123.1600000000000	0	n/a	73897	KeyDown	41324	4	Index	6
123.3133333333333	0	n/a	73989	KeyDown	41324	1	Little	6
123.4783333333333	0	n/a	74088	KeyDown	41324	3	Middle	6
123.6300000000000	0	n/a	74179	KeyDown	41324	2	Ring	6
123.7666666666667	0	n/a	74261	KeyDown	41324	4	Index	6
123.9316666666667	0	n/a	74360	KeyDown	41324	4	Index	6
124.0633333333333	0	n/a	74439	KeyDown	41324	1	Little	6
124.1983333333333	0	n/a	74520	KeyDown	41324	3	Middle	6
124.4416666666667	0	n/a	74666	KeyDown	41324	2	Ring	6
125.1250000000000	0	n/a	75076	KeyDown	41324	4	Index	6
125.6750000000000	0	n/a	75406	KeyDown	41324	1	Little	6
126.3383333333333	0	n/a	75804	KeyDown	41324	3	Middle	6
126.4333333333333	0	n/a	75861	KeyDown	41324	2	Ring	6
126.6333333333333	0	n/a	75981	KeyDown	41324	4	Index	6
126.8083333333333	0	n/a	76086	KeyDown	41324	4	Index	6
126.9166666666667	0	n/a	76151	StopPractice	41324	n/a	n/a	6
126.9183333333333	0	n/a	76152	StartRest	XXXXX	n/a	n/a	6
136.9433333333333	0	n/a	82167	StopRest	XXXXX	n/a	n/a	6
136.9450000000000	0	UPPT001	82168	StartPractice	41324	n/a	n/a	7
137.3666666666667	0	n/a	82421	KeyDown	41324	4	Index	7
137.5216666666667	0	n/a	82514	KeyDown	41324	1	Little	7
137.7566666666667	0	n/a	82655	KeyDown	41324	3	Middle	7
137.8783333333333	0	n/a	82728	KeyDown	41324	2	Ring	7
138.0016666666667	0	n/a	82802	KeyDown	41324	4	Index	7
138.1983333333334	0	n/a	82920	KeyDown	41324	4	Index	7
138.4716666666667	0	n/a	83084	KeyDown	41324	1	Little	7
138.8016666666667	0	n/a	83282	KeyDown	41324	3	Middle	7
138.9666666666667	0	n/a	83381	KeyDown	41324	2	Ring	7
139.1316666666667	0	n/a	83480	KeyDown	41324	4	Index	7
139.3666666666667	0	n/a	83621	KeyDown	41324	4	Index	7
139.5400000000000	0	n/a	83725	KeyDown	41324	1	Little	7
139.7533333333333	0	n/a	83853	KeyDown	41324	2	Ring	7
140.4216666666667	0	n/a	84254	KeyDown	41324	3	Middle	7
141.5266666666667	0	n/a	84917	KeyDown	41324	4	Index	7
141.7633333333333	0	n/a	85059	KeyDown	41324	4	Index	7
142.0066666666667	0	n/a	85205	KeyDown	41324	1	Little	7
142.1800000000000	0	n/a	85309	KeyDown	41324	3	Middle	7
142.3233333333334	0	n/a	85395	KeyDown	41324	2	Ring	7
142.4716666666667	0	n/a	85484	KeyDown	41324	4	Index	7
142.6783333333333	0	n/a	85608	KeyDown	41324	4	Index	7
143.0733333333334	0	n/a	85845	KeyDown	41324	1	Little	7
143.8250000000000	0	n/a	86296	KeyDown	41324	3	Middle	7
143.9416666666667	0	n/a	86366	KeyDown	41324	2	Ring	7
144.0983333333333	0	n/a	86460	KeyDown	41324	4	Index	7
144.2983333333333	0	n/a	86580	KeyDown	41324	4	Index	7
144.4366666666667	0	n/a	86663	KeyDown	41324	1	Little	7
144.7733333333333	0	n/a	86865	KeyDown	41324	3	Middle	7
144.9150000000000	0	n/a	86950	KeyDown	41324	2	Ring	7
145.0950000000000	0	n/a	87058	KeyDown	41324	4	Index	7
145.2716666666667	0	n/a	87164	KeyDown	41324	4	Index	7
145.3783333333333	0	n/a	87228	KeyDown	41324	1	Little	7
145.5416666666667	0	n/a	87326	KeyDown	41324	3	Middle	7
145.6850000000000	0	n/a	87412	KeyDown	41324	2	Ring	7
145.8183333333334	0	n/a	87492	KeyDown	41324	4	Index	7
145.9916666666667	0	n/a	87596	KeyDown	41324	4	Index	7
146.1083333333333	0	n/a	87666	KeyDown	41324	1	Little	7
146.5216666666667	0	n/a	87914	KeyDown	41324	3	Middle	7
146.7816666666667	0	n/a	88070	KeyDown	41324	2	Ring	7
146.9916666666667	0	n/a	88196	StopPractice	41324	n/a	n/a	7
146.9933333333333	0	n/a	88197	StartRest	XXXXX	n/a	n/a	7
157.0183333333333	0	n/a	94212	StopRest	XXXXX	n/a	n/a	7
157.0200000000000	0	UPPT001	94213	StartPractice	41324	n/a	n/a	8
157.5200000000000	0	n/a	94513	KeyDown	41324	4	Index	8
157.6666666666667	0	n/a	94601	KeyDown	41324	1	Little	8
157.8533333333334	0	n/a	94713	KeyDown	41324	3	Middle	8
157.9866666666667	0	n/a	94793	KeyDown	41324	2	Ring	8
158.1150000000000	0	n/a	94870	KeyDown	41324	4	Index	8
158.2950000000000	0	n/a	94978	KeyDown	41324	4	Index	8
158.4416666666667	0	n/a	95066	KeyDown	41324	1	Little	8
158.7633333333333	0	n/a	95259	KeyDown	41324	3	Middle	8
158.9016666666667	0	n/a	95342	KeyDown	41324	2	Ring	8
159.0516666666667	0	n/a	95432	KeyDown	41324	4	Index	8
159.2316666666667	0	n/a	95540	KeyDown	41324	4	Index	8
159.3700000000000	0	n/a	95623	KeyDown	41324	1	Little	8
159.5583333333333	0	n/a	95736	KeyDown	41324	3	Middle	8
159.6833333333333	0	n/a	95811	KeyDown	41324	2	Ring	8
159.8316666666667	0	n/a	95900	KeyDown	41324	4	Index	8
160.0016666666667	0	n/a	96002	KeyDown	41324	4	Index	8
160.1233333333333	0	n/a	96075	KeyDown	41324	1	Little	8
160.2633333333333	0	n/a	96159	KeyDown	41324	3	Middle	8
160.4366666666667	0	n/a	96263	KeyDown	41324	2	Ring	8
160.6616666666667	0	n/a	96398	KeyDown	41324	4	Index	8
160.8550000000000	0	n/a	96514	KeyDown	41324	4	Index	8
161.0183333333333	0	n/a	96612	KeyDown	41324	1	Little	8
161.4666666666667	0	n/a	96881	KeyDown	41324	3	Middle	8
161.6316666666667	0	n/a	96980	KeyDown	41324	2	Ring	8
161.7733333333333	0	n/a	97065	KeyDown	41324	4	Index	8
161.9383333333333	0	n/a	97164	KeyDown	41324	4	Index	8
162.0750000000000	0	n/a	97246	KeyDown	41324	1	Little	8
162.2883333333334	0	n/a	97374	KeyDown	41324	3	Middle	8
162.4266666666667	0	n/a	97457	KeyDown	41324	2	Ring	8
162.5883333333333	0	n/a	97554	KeyDown	41324	4	Index	8
162.7483333333333	0	n/a	97650	KeyDown	41324	4	Index	8
162.8833333333334	0	n/a	97731	KeyDown	41324	1	Little	8
163.0666666666667	0	n/a	97841	KeyDown	41324	3	Middle	8
163.2216666666667	0	n/a	97934	KeyDown	41324	2	Ring	8
163.3533333333334	0	n/a	98013	KeyDown	41324	4	Index	8
163.5233333333333	0	n/a	98115	KeyDown	41324	4	Index	8
163.6700000000000	0	n/a	98203	KeyDown	41324	1	Little	8
163.8783333333333	0	n/a	98328	KeyDown	41324	3	Middle	8
164.0216666666667	0	n/a	98414	KeyDown	41324	2	Ring	8
164.2083333333333	0	n/a	98526	KeyDown	41324	4	Index	8
164.3983333333333	0	n/a	98640	KeyDown	41324	4	Index	8
164.5366666666667	0	n/a	98723	KeyDown	41324	1	Little	8
164.7383333333333	0	n/a	98844	KeyDown	41324	3	Middle	8
164.8900000000000	0	n/a	98935	KeyDown	41324	2	Ring	8
165.0350000000000	0	n/a	99022	KeyDown	41324	4	Index	8
165.1983333333334	0	n/a	99120	KeyDown	41324	4	Index	8
165.3333333333333	0	n/a	99201	KeyDown	41324	1	Little	8
165.5066666666667	0	n/a	99305	KeyDown	41324	3	Middle	8
165.6416666666667	0	n/a	99386	KeyDown	41324	2	Ring	8
165.7766666666667	0	n/a	99467	KeyDown	41324	4	Index	8
165.9483333333334	0	n/a	99570	KeyDown	41324	4	Index	8
166.0750000000000	0	n/a	99646	KeyDown	41324	1	Little	8
166.2550000000000	0	n/a	99754	KeyDown	41324	3	Middle	8
166.4183333333334	0	n/a	99852	KeyDown	41324	2	Ring	8
166.5933333333333	0	n/a	99957	KeyDown	41324	4	Index	8
166.8783333333333	0	n/a	100128	KeyDown	41324	4	Index	8
167.0666666666667	0	n/a	100241	StopPractice	41324	n/a	n/a	8
167.0683333333334	0	n/a	100242	StartRest	XXXXX	n/a	n/a	8
177.1100000000000	0	n/a	106267	StopRest	XXXXX	n/a	n/a	8
177.1116666666667	0	UPPT001	106268	StartPractice	41324	n/a	n/a	9
177.5016666666667	0	n/a	106502	KeyDown	41324	4	Index	9
177.6700000000000	0	n/a	106603	KeyDown	41324	1	Little	9
177.8233333333334	0	n/a	106695	KeyDown	41324	3	Middle	9
177.9633333333333	0	n/a	106779	KeyDown	41324	2	Ring	9
178.0966666666667	0	n/a	106859	KeyDown	41324	4	Index	9
178.2900000000000	0	n/a	106975	KeyDown	41324	4	Index	9
178.6250000000000	0	n/a	107176	KeyDown	41324	1	Little	9
178.8216666666667	0	n/a	107294	KeyDown	41324	3	Middle	9
178.9433333333334	0	n/a	107367	KeyDown	41324	2	Ring	9
179.0733333333334	0	n/a	107445	KeyDown	41324	4	Index	9
179.2650000000000	0	n/a	107560	KeyDown	41324	4	Index	9
179.4283333333333	0	n/a	107658	KeyDown	41324	1	Little	9
179.6000000000000	0	n/a	107761	KeyDown	41324	3	Middle	9
179.7416666666667	0	n/a	107846	KeyDown	41324	2	Ring	9
179.8700000000000	0	n/a	107923	KeyDown	41324	4	Index	9
180.0433333333334	0	n/a	108027	KeyDown	41324	4	Index	9
180.1783333333333	0	n/a	108108	KeyDown	41324	1	Little	9
180.3533333333334	0	n/a	108213	KeyDown	41324	3	Middle	9
180.5083333333334	0	n/a	108306	KeyDown	41324	2	Ring	9
180.6550000000000	0	n/a	108394	KeyDown	41324	4	Index	9
180.8300000000000	0	n/a	108499	KeyDown	41324	4	Index	9
180.9516666666667	0	n/a	108572	KeyDown	41324	1	Little	9
181.1250000000000	0	n/a	108676	KeyDown	41324	3	Middle	9
181.2700000000000	0	n/a	108763	KeyDown	41324	2	Ring	9
181.4283333333333	0	n/a	108858	KeyDown	41324	4	Index	9
181.5983333333334	0	n/a	108960	KeyDown	41324	4	Index	9
181.7200000000000	0	n/a	109033	KeyDown	41324	1	Little	9
181.8800000000000	0	n/a	109129	KeyDown	41324	3	Middle	9
182.0300000000000	0	n/a	109219	KeyDown	41324	2	Ring	9
182.1516666666667	0	n/a	109292	KeyDown	41324	4	Index	9
182.3516666666667	0	n/a	109412	KeyDown	41324	4	Index	9
182.5066666666667	0	n/a	109505	KeyDown	41324	1	Little	9
182.9500000000000	0	n/a	109771	KeyDown	41324	3	Middle	9
183.0900000000000	0	n/a	109855	KeyDown	41324	2	Ring	9
183.2700000000000	0	n/a	109963	KeyDown	41324	4	Index	9
183.4533333333333	0	n/a	110073	KeyDown	41324	4	Index	9
183.6316666666667	0	n/a	110180	KeyDown	41324	1	Little	9
183.8133333333333	0	n/a	110289	KeyDown	41324	3	Middle	9
183.9683333333333	0	n/a	110382	KeyDown	41324	2	Ring	9
184.1166666666667	0	n/a	110471	KeyDown	41324	4	Index	9
184.2900000000000	0	n/a	110575	KeyDown	41324	4	Index	9
184.4500000000000	0	n/a	110671	KeyDown	41324	1	Little	9
184.6383333333333	0	n/a	110784	KeyDown	41324	3	Middle	9
184.7866666666667	0	n/a	110873	KeyDown	41324	2	Ring	9
184.9400000000000	0	n/a	110965	KeyDown	41324	4	Index	9
185.1350000000000	0	n/a	111082	KeyDown	41324	4	Index	9
185.3100000000000	0	n/a	111187	KeyDown	41324	1	Little	9
185.4866666666667	0	n/a	111293	KeyDown	41324	3	Middle	9
185.6433333333333	0	n/a	111387	KeyDown	41324	2	Ring	9
185.7850000000000	0	n/a	111472	KeyDown	41324	4	Index	9
185.9616666666667	0	n/a	111578	KeyDown	41324	4	Index	9
186.0883333333333	0	n/a	111654	KeyDown	41324	1	Little	9
186.2600000000000	0	n/a	111757	KeyDown	41324	3	Middle	9
186.4183333333334	0	n/a	111852	KeyDown	41324	2	Ring	9
186.5600000000000	0	n/a	111937	KeyDown	41324	4	Index	9
186.7250000000000	0	n/a	112036	KeyDown	41324	4	Index	9
186.8500000000000	0	n/a	112111	KeyDown	41324	1	Little	9
187.0033333333334	0	n/a	112203	KeyDown	41324	3	Middle	9
187.1583333333333	0	n/a	112296	StopPractice	41324	n/a	n/a	9
187.1600000000000	0	n/a	112297	StartRest	XXXXX	n/a	n/a	9
197.2016666666667	0	n/a	118322	StopRest	XXXXX	n/a	n/a	9
197.2033333333333	0	UPPT001	118323	StartPractice	41324	n/a	n/a	10
197.6466666666667	0	n/a	118589	KeyDown	41324	4	Index	10
197.8166666666667	0	n/a	118691	KeyDown	41324	1	Little	10
197.9716666666667	0	n/a	118784	KeyDown	41324	3	Middle	10
198.0966666666667	0	n/a	118859	KeyDown	41324	2	Ring	10
198.2266666666667	0	n/a	118937	KeyDown	41324	4	Index	10
198.4050000000000	0	n/a	119044	KeyDown	41324	4	Index	10
198.8200000000000	0	n/a	119293	KeyDown	41324	1	Little	10
199.0050000000000	0	n/a	119404	KeyDown	41324	3	Middle	10
199.1366666666667	0	n/a	119483	KeyDown	41324	2	Ring	10
199.2866666666667	0	n/a	119573	KeyDown	41324	4	Index	10
199.4950000000000	0	n/a	119698	KeyDown	41324	4	Index	10
199.7100000000000	0	n/a	119827	KeyDown	41324	1	Little	10
199.9000000000000	0	n/a	119941	KeyDown	41324	3	Middle	10
200.0666666666667	0	n/a	120041	KeyDown	41324	2	Ring	10
200.2166666666667	0	n/a	120131	KeyDown	41324	4	Index	10
200.4133333333334	0	n/a	120249	KeyDown	41324	4	Index	10
200.6583333333334	0	n/a	120396	KeyDown	41324	1	Little	10
200.8216666666667	0	n/a	120494	KeyDown	41324	3	Middle	10
200.9850000000000	0	n/a	120592	KeyDown	41324	2	Ring	10
201.1433333333333	0	n/a	120687	KeyDown	41324	4	Index	10
201.3316666666667	0	n/a	120800	KeyDown	41324	4	Index	10
201.5566666666667	0	n/a	120935	KeyDown	41324	1	Little	10
201.6750000000000	0	n/a	121006	KeyDown	41324	3	Middle	10
201.8283333333333	0	n/a	121098	KeyDown	41324	2	Ring	10
201.9666666666667	0	n/a	121181	KeyDown	41324	4	Index	10
202.1416666666667	0	n/a	121286	KeyDown	41324	4	Index	10
202.3300000000000	0	n/a	121399	KeyDown	41324	1	Little	10
202.4966666666667	0	n/a	121499	KeyDown	41324	3	Middle	10
202.6600000000000	0	n/a	121597	KeyDown	41324	2	Ring	10
202.8250000000000	0	n/a	121696	KeyDown	41324	4	Index	10
203.0150000000000	0	n/a	121810	KeyDown	41324	4	Index	10
203.2016666666667	0	n/a	121922	KeyDown	41324	1	Little	10
203.3533333333334	0	n/a	122013	KeyDown	41324	3	Middle	10
203.5083333333334	0	n/a	122106	KeyDown	41324	2	Ring	10
203.6616666666667	0	n/a	122198	KeyDown	41324	4	Index	10
203.8600000000000	0	n/a	122317	KeyDown	41324	4	Index	10
204.0216666666667	0	n/a	122414	KeyDown	41324	1	Little	10
204.1916666666667	0	n/a	122516	KeyDown	41324	3	Middle	10
204.3616666666667	0	n/a	122618	KeyDown	41324	2	Ring	10
204.5050000000000	0	n/a	122704	KeyDown	41324	4	Index	10
204.7033333333333	0	n/a	122823	KeyDown	41324	4	Index	10
204.9016666666667	0	n/a	122942	KeyDown	41324	1	Little	10
205.0616666666667	0	n/a	123038	KeyDown	41324	3	Middle	10
205.2166666666667	0	n/a	123131	KeyDown	41324	2	Ring	10
205.3533333333334	0	n/a	123213	KeyDown	41324	4	Index	10
205.5350000000000	0	n/a	123322	KeyDown	41324	4	Index	10
205.7400000000000	0	n/a	123445	KeyDown	41324	1	Little	10
205.9766666666667	0	n/a	123587	KeyDown	41324	3	Middle	10
206.1066666666667	0	n/a	123665	KeyDown	41324	2	Ring	10
206.2716666666667	0	n/a	123764	KeyDown	41324	4	Index	10
206.4866666666667	0	n/a	123893	KeyDown	41324	4	Index	10
206.7000000000000	0	n/a	124021	KeyDown	41324	1	Little	10
206.8733333333333	0	n/a	124125	KeyDown	41324	3	Middle	10
207.0183333333333	0	n/a	124212	KeyDown	41324	2	Ring	10
207.1583333333334	0	n/a	124296	KeyDown	41324	4	Index	10
207.2500000000000	0	n/a	124351	StopPractice	41324	n/a	n/a	10
207.2516666666667	0	n/a	124352	StartRest	XXXXX	n/a	n/a	10
217.2933333333334	0	n/a	130377	StopRest	XXXXX	n/a	n/a	10
217.2950000000000	0	UPPT001	130378	StartPractice	41324	n/a	n/a	11
217.7616666666667	0	n/a	130658	KeyDown	41324	4	Index	11
217.8950000000000	0	n/a	130738	KeyDown	41324	1	Little	11
218.0850000000000	0	n/a	130852	KeyDown	41324	2	Ring	11
218.6116666666667	0	n/a	131168	KeyDown	41324	2	Ring	11
219.2466666666667	0	n/a	131549	KeyDown	41324	4	Index	11
219.4516666666667	0	n/a	131672	KeyDown	41324	4	Index	11
219.7983333333333	0	n/a	131880	KeyDown	41324	1	Little	11
219.9683333333333	0	n/a	131982	KeyDown	41324	3	Middle	11
220.0966666666667	0	n/a	132059	KeyDown	41324	2	Ring	11
220.2566666666667	0	n/a	132155	KeyDown	41324	4	Index	11
220.4466666666667	0	n/a	132269	KeyDown	41324	4	Index	11
220.6016666666667	0	n/a	132362	KeyDown	41324	1	Little	11
220.7733333333333	0	n/a	132465	KeyDown	41324	3	Middle	11
220.9033333333333	0	n/a	132543	KeyDown	41324	2	Ring	11
221.0183333333333	0	n/a	132612	KeyDown	41324	4	Index	11
221.2066666666667	0	n/a	132725	KeyDown	41324	4	Index	11
221.3383333333333	0	n/a	132804	KeyDown	41324	1	Little	11
221.4633333333333	0	n/a	132879	KeyDown	41324	3	Middle	11
221.6000000000000	0	n/a	132961	KeyDown	41324	2	Ring	11
221.7666666666667	0	n/a	133061	KeyDown	41324	4	Index	11
221.9216666666667	0	n/a	133154	KeyDown	41324	4	Index	11
222.0716666666667	0	n/a	133244	KeyDown	41324	1	Little	11
222.2683333333333	0	n/a	133362	KeyDown	41324	3	Middle	11
222.4166666666667	0	n/a	133451	KeyDown	41324	2	Ring	11
222.5833333333333	0	n/a	133551	KeyDown	41324	4	Index	11
222.7616666666667	0	n/a	133658	KeyDown	41324	4	Index	11
222.9066666666667	0	n/a	133745	KeyDown	41324	1	Little	11
223.0716666666667	0	n/a	133844	KeyDown	41324	3	Middle	11
223.1900000000000	0	n/a	133915	KeyDown	41324	2	Ring	11
223.3450000000000	0	n/a	134008	KeyDown	41324	4	Index	11
223.5033333333334	0	n/a	134103	KeyDown	41324	4	Index	11
223.6266666666667	0	n/a	134177	KeyDown	41324	1	Little	11
223.8183333333334	0	n/a	134292	KeyDown	41324	3	Middle	11
223.9550000000000	0	n/a	134374	KeyDown	41324	2	Ring	11
224.1033333333334	0	n/a	134463	KeyDown	41324	4	Index	11
224.2866666666667	0	n/a	134573	KeyDown	41324	4	Index	11
224.4166666666667	0	n/a	134651	KeyDown	41324	1	Little	11
224.5983333333334	0	n/a	134760	KeyDown	41324	3	Middle	11
224.7350000000000	0	n/a	134842	KeyDown	41324	2	Ring	11
224.9200000000000	0	n/a	134953	KeyDown	41324	4	Index	11
225.0800000000000	0	n/a	135049	KeyDown	41324	4	Index	11
225.2400000000000	0	n/a	135145	KeyDown	41324	1	Little	11
225.3933333333333	0	n/a	135237	KeyDown	41324	3	Middle	11
225.5416666666667	0	n/a	135326	KeyDown	41324	2	Ring	11
225.7583333333334	0	n/a	135456	KeyDown	41324	4	Index	11
225.9450000000000	0	n/a	135568	KeyDown	41324	4	Index	11
226.1300000000000	0	n/a	135679	KeyDown	41324	1	Little	11
226.3300000000000	0	n/a	135799	KeyDown	41324	3	Middle	11
226.4783333333334	0	n/a	135888	KeyDown	41324	2	Ring	11
226.6883333333334	0	n/a	136014	KeyDown	41324	4	Index	11
226.8683333333333	0	n/a	136122	KeyDown	41324	4	Index	11
227.0716666666667	0	n/a	136244	KeyDown	41324	1	Little	11
227.2316666666667	0	n/a	136340	KeyDown	41324	3	Middle	11
227.3416666666667	0	n/a	136406	StopPractice	41324	n/a	n/a	11
227.3433333333334	0	n/a	136407	StartRest	XXXXX	n/a	n/a	11
237.3850000000000	0	n/a	142432	StopRest	XXXXX	n/a	n/a	11
237.3866666666667	0	UPPT001	142433	StartPractice	41324	n/a	n/a	12
237.8316666666667	0	n/a	142700	KeyDown	41324	4	Index	12
237.9583333333333	0	n/a	142776	KeyDown	41324	1	Little	12
238.1516666666667	0	n/a	142892	KeyDown	41324	2	Ring	12
238.3666666666667	0	n/a	143021	KeyDown	41324	3	Middle	12
239.5416666666667	0	n/a	143726	KeyDown	41324	4	Index	12
240.3200000000000	0	n/a	144193	KeyDown	41324	4	Index	12
240.6183333333333	0	n/a	144372	KeyDown	41324	1	Little	12
240.8250000000000	0	n/a	144496	KeyDown	41324	3	Middle	12
240.9616666666667	0	n/a	144578	KeyDown	41324	2	Ring	12
241.1150000000000	0	n/a	144670	KeyDown	41324	4	Index	12
241.2883333333334	0	n/a	144774	KeyDown	41324	4	Index	12
241.4216666666667	0	n/a	144854	KeyDown	41324	1	Little	12
241.5533333333333	0	n/a	144933	KeyDown	41324	3	Middle	12
241.7083333333333	0	n/a	145026	KeyDown	41324	2	Ring	12
241.8600000000000	0	n/a	145117	KeyDown	41324	4	Index	12
242.0283333333333	0	n/a	145218	KeyDown	41324	4	Index	12
242.1250000000000	0	n/a	145276	KeyDown	41324	1	Little	12
242.2516666666667	0	n/a	145352	KeyDown	41324	3	Middle	12
242.4116666666667	0	n/a	145448	KeyDown	41324	2	Ring	12
242.5633333333334	0	n/a	145539	KeyDown	41324	4	Index	12
242.7200000000000	0	n/a	145633	KeyDown	41324	4	Index	12
242.8500000000000	0	n/a	145711	KeyDown	41324	1	Little	12
243.0350000000000	0	n/a	145822	KeyDown	41324	3	Middle	12
243.1683333333334	0	n/a	145902	KeyDown	41324	2	Ring	12
243.4666666666667	0	n/a	146081	KeyDown	41324	4	Index	12
243.6416666666667	0	n/a	146186	KeyDown	41324	4	Index	12
243.7550000000000	0	n/a	146254	KeyDown	41324	1	Little	12
244.2533333333334	0	n/a	146553	KeyDown	41324	3	Middle	12
244.4150000000000	0	n/a	146650	KeyDown	41324	2	Ring	12
244.6033333333334	0	n/a	146763	KeyDown	41324	4	Index	12
244.7766666666667	0	n/a	146867	KeyDown	41324	4	Index	12
244.9300000000000	0	n/a	146959	KeyDown	41324	1	Little	12
245.2216666666667	0	n/a	147134	KeyDown	41324	3	Middle	12
245.3516666666667	0	n/a	147212	KeyDown	41324	2	Ring	12
245.5083333333334	0	n/a	147306	KeyDown	41324	4	Index	12
245.6850000000000	0	n/a	147412	KeyDown	41324	4	Index	12
245.8233333333334	0	n/a	147495	KeyDown	41324	1	Little	12
246.0800000000000	0	n/a	147649	KeyDown	41324	3	Middle	12
246.2233333333334	0	n/a	147735	KeyDown	41324	2	Ring	12
246.3650000000000	0	n/a	147820	KeyDown	41324	4	Index	12
246.5283333333333	0	n/a	147918	KeyDown	41324	4	Index	12
246.6450000000000	0	n/a	147988	KeyDown	41324	1	Little	12
246.7933333333334	0	n/a	148077	KeyDown	41324	3	Middle	12
246.9483333333334	0	n/a	148170	KeyDown	41324	2	Ring	12
247.2483333333334	0	n/a	148350	KeyDown	41324	4	Index	12
247.4000000000000	0	n/a	148441	KeyDown	41324	4	Index	12
247.4333333333333	0	n/a	148461	StopPractice	41324	n/a	n/a	12
247.4350000000000	0	n/a	148462	StartRest	XXXXX	n/a	n/a	12
257.4583333333334	0	n/a	154476	StopRest	XXXXX	n/a	n/a	12
257.4600000000000	0	UPPT001	154477	StartPractice	41324	n/a	n/a	13
257.8883333333334	0	n/a	154734	KeyDown	41324	4	Index	13
258.0350000000000	0	n/a	154822	KeyDown	41324	1	Little	13
258.3333333333334	0	n/a	155001	KeyDown	41324	3	Middle	13
258.4616666666667	0	n/a	155078	KeyDown	41324	2	Ring	13
258.6133333333333	0	n/a	155169	KeyDown	41324	4	Index	13
258.8116666666667	0	n/a	155288	KeyDown	41324	4	Index	13
258.9833333333333	0	n/a	155391	KeyDown	41324	1	Little	13
259.1866666666667	0	n/a	155513	KeyDown	41324	3	Middle	13
259.3166666666667	0	n/a	155591	KeyDown	41324	2	Ring	13
259.4750000000000	0	n/a	155686	KeyDown	41324	4	Index	13
259.6716666666667	0	n/a	155804	KeyDown	41324	4	Index	13
259.8233333333333	0	n/a	155895	KeyDown	41324	1	Little	13
259.9650000000000	0	n/a	155980	KeyDown	41324	3	Middle	13
260.1283333333333	0	n/a	156078	KeyDown	41324	2	Ring	13
260.2900000000000	0	n/a	156175	KeyDown	41324	4	Index	13
260.4733333333334	0	n/a	156285	KeyDown	41324	4	Index	13
260.6100000000000	0	n/a	156367	KeyDown	41324	1	Little	13
260.7583333333333	0	n/a	156456	KeyDown	41324	3	Middle	13
260.9050000000000	0	n/a	156544	KeyDown	41324	2	Ring	13
261.0583333333333	0	n/a	156636	KeyDown	41324	4	Index	13
261.2566666666667	0	n/a	156755	KeyDown	41324	4	Index	13
261.4100000000000	0	n/a	156847	KeyDown	41324	1	Little	13
261.5950000000000	0	n/a	156958	KeyDown	41324	3	Middle	13
261.7650000000000	0	n/a	157060	KeyDown	41324	2	Ring	13
261.9333333333333	0	n/a	157161	KeyDown	41324	4	Index	13
262.1116666666667	0	n/a	157268	KeyDown	41324	4	Index	13
262.2566666666667	0	n/a	157355	KeyDown	41324	1	Little	13
262.4633333333334	0	n/a	157479	KeyDown	41324	3	Middle	13
262.5916666666667	0	n/a	157556	KeyDown	41324	3	Middle	13
262.9316666666667	0	n/a	157760	KeyDown	41324	2	Ring	13
263.2083333333334	0	n/a	157926	KeyDown	41324	4	Index	13
263.4916666666667	0	n/a	158096	KeyDown	41324	4	Index	13
263.9183333333334	0	n/a	158352	KeyDown	41324	1	Little	13
264.2266666666667	0	n/a	158537	KeyDown	41324	3	Middle	13
264.3483333333334	0	n/a	158610	KeyDown	41324	2	Ring	13
264.4800000000000	0	n/a	158689	KeyDown	41324	4	Index	13
264.6716666666667	0	n/a	158804	KeyDown	41324	4	Index	13
264.7916666666667	0	n/a	158876	KeyDown	41324	1	Little	13
264.9283333333333	0	n/a	158958	KeyDown	41324	3	Middle	13
265.0900000000000	0	n/a	159055	KeyDown	41324	2	Ring	13
265.3983333333334	0	n/a	159240	KeyDown	41324	4	Index	13
265.5700000000000	0	n/a	159343	KeyDown	41324	4	Index	13
265.7266666666667	0	n/a	159437	KeyDown	41324	1	Little	13
266.0733333333333	0	n/a	159645	KeyDown	41324	3	Middle	13
266.2183333333334	0	n/a	159732	KeyDown	41324	2	Ring	13
266.4650000000000	0	n/a	159880	KeyDown	41324	4	Index	13
266.6316666666667	0	n/a	159980	KeyDown	41324	4	Index	13
266.7666666666667	0	n/a	160061	KeyDown	41324	1	Little	13
267.0500000000000	0	n/a	160231	KeyDown	41324	3	Middle	13
267.1933333333333	0	n/a	160317	KeyDown	41324	2	Ring	13
267.3583333333333	0	n/a	160416	KeyDown	41324	4	Index	13
267.5066666666667	0	n/a	160505	StopPractice	41324	n/a	n/a	13
267.5083333333333	0	n/a	160506	StartRest	XXXXX	n/a	n/a	13
277.5500000000000	0	n/a	166531	StopRest	XXXXX	n/a	n/a	13
277.5516666666667	0	UPPT001	166532	StartPractice	41324	n/a	n/a	14
277.9750000000000	0	n/a	166786	KeyDown	41324	4	Index	14
278.1300000000000	0	n/a	166879	KeyDown	41324	1	Little	14
278.3483333333334	0	n/a	167010	KeyDown	41324	3	Middle	14
278.4700000000000	0	n/a	167083	KeyDown	41324	2	Ring	14
278.6100000000000	0	n/a	167167	KeyDown	41324	4	Index	14
278.8033333333333	0	n/a	167283	KeyDown	41324	4	Index	14
278.9183333333334	0	n/a	167352	KeyDown	41324	1	Little	14
279.0883333333334	0	n/a	167454	KeyDown	41324	3	Middle	14
279.2150000000000	0	n/a	167530	KeyDown	41324	2	Ring	14
279.3633333333333	0	n/a	167619	KeyDown	41324	4	Index	14
279.5350000000000	0	n/a	167722	KeyDown	41324	4	Index	14
279.6366666666667	0	n/a	167783	KeyDown	41324	1	Little	14
279.7950000000000	0	n/a	167878	KeyDown	41324	3	Middle	14
279.9333333333333	0	n/a	167961	KeyDown	41324	2	Ring	14
280.0733333333333	0	n/a	168045	KeyDown	41324	4	Index	14
280.2416666666667	0	n/a	168146	KeyDown	41324	4	Index	14
280.3833333333333	0	n/a	168231	KeyDown	41324	1	Little	14
280.5833333333334	0	n/a	168351	KeyDown	41324	3	Middle	14
280.7283333333334	0	n/a	168438	KeyDown	41324	2	Ring	14
280.8733333333333	0	n/a	168525	KeyDown	41324	4	Index	14
281.0700000000000	0	n/a	168643	KeyDown	41324	4	Index	14
281.2083333333334	0	n/a	168726	KeyDown	41324	1	Little	14
281.4883333333333	0	n/a	168894	KeyDown	41324	3	Middle	14
281.6150000000000	0	n/a	168970	KeyDown	41324	2	Ring	14
281.7800000000000	0	n/a	169069	KeyDown	41324	4	Index	14
281.9400000000000	0	n/a	169165	KeyDown	41324	4	Index	14
282.0766666666667	0	n/a	169247	KeyDown	41324	1	Little	14
282.4683333333334	0	n/a	169482	KeyDown	41324	3	Middle	14
282.5933333333334	0	n/a	169557	KeyDown	41324	2	Ring	14
282.7766666666667	0	n/a	169667	KeyDown	41324	4	Index	14
282.9733333333334	0	n/a	169785	KeyDown	41324	4	Index	14
283.1333333333333	0	n/a	169881	KeyDown	41324	1	Little	14
283.5250000000000	0	n/a	170116	KeyDown	41324	3	Middle	14
283.7083333333334	0	n/a	170226	KeyDown	41324	2	Ring	14
283.8800000000000	0	n/a	170329	KeyDown	41324	4	Index	14
284.0400000000000	0	n/a	170425	KeyDown	41324	4	Index	14
284.1516666666667	0	n/a	170492	KeyDown	41324	1	Little	14
284.3483333333334	0	n/a	170610	KeyDown	41324	3	Middle	14
284.5650000000000	0	n/a	170740	KeyDown	41324	2	Ring	14
284.7683333333334	0	n/a	170862	KeyDown	41324	4	Index	14
284.9233333333333	0	n/a	170955	KeyDown	41324	4	Index	14
285.0850000000000	0	n/a	171052	KeyDown	41324	1	Little	14
285.2766666666667	0	n/a	171167	KeyDown	41324	3	Middle	14
285.4183333333334	0	n/a	171252	KeyDown	41324	2	Ring	14
285.6133333333333	0	n/a	171369	KeyDown	41324	4	Index	14
285.7850000000000	0	n/a	171472	KeyDown	41324	4	Index	14
285.9016666666667	0	n/a	171542	KeyDown	41324	1	Little	14
286.0783333333334	0	n/a	171648	KeyDown	41324	3	Middle	14
286.2183333333334	0	n/a	171732	KeyDown	41324	2	Ring	14
286.3600000000000	0	n/a	171817	KeyDown	41324	4	Index	14
286.5366666666667	0	n/a	171923	KeyDown	41324	4	Index	14
286.7250000000000	0	n/a	172036	KeyDown	41324	1	Little	14
287.0450000000000	0	n/a	172228	KeyDown	41324	3	Middle	14
287.1983333333333	0	n/a	172320	KeyDown	41324	2	Ring	14
287.4183333333334	0	n/a	172452	KeyDown	41324	4	Index	14
287.5983333333334	0	n/a	172560	StopPractice	41324	n/a	n/a	14
287.6000000000000	0	n/a	172561	StartRest	XXXXX	n/a	n/a	14
297.6416666666667	0	n/a	178586	StopRest	XXXXX	n/a	n/a	14
297.6433333333334	0	UPPT001	178587	StartPractice	41324	n/a	n/a	15
298.0016666666667	0	n/a	178802	KeyDown	41324	4	Index	15
298.1616666666667	0	n/a	178898	KeyDown	41324	1	Little	15
298.3566666666667	0	n/a	179015	KeyDown	41324	3	Middle	15
298.4916666666667	0	n/a	179096	KeyDown	41324	2	Ring	15
298.6100000000000	0	n/a	179167	KeyDown	41324	4	Index	15
298.8200000000000	0	n/a	179293	KeyDown	41324	4	Index	15
298.9883333333333	0	n/a	179394	KeyDown	41324	1	Little	15
299.1533333333334	0	n/a	179493	KeyDown	41324	3	Middle	15
299.2900000000000	0	n/a	179575	KeyDown	41324	2	Ring	15
299.4233333333333	0	n/a	179655	KeyDown	41324	4	Index	15
299.6116666666667	0	n/a	179768	KeyDown	41324	4	Index	15
299.8000000000000	0	n/a	179881	KeyDown	41324	1	Little	15
299.9616666666667	0	n/a	179978	KeyDown	41324	3	Middle	15
300.0783333333334	0	n/a	180048	KeyDown	41324	2	Ring	15
300.2050000000000	0	n/a	180124	KeyDown	41324	4	Index	15
300.3766666666667	0	n/a	180227	KeyDown	41324	4	Index	15
300.5033333333333	0	n/a	180303	KeyDown	41324	1	Little	15
300.6350000000000	0	n/a	180382	KeyDown	41324	3	Middle	15
300.7833333333334	0	n/a	180471	KeyDown	41324	2	Ring	15
300.9200000000000	0	n/a	180553	KeyDown	41324	4	Index	15
301.0900000000000	0	n/a	180655	KeyDown	41324	4	Index	15
301.1916666666667	0	n/a	180716	KeyDown	41324	1	Little	15
301.3316666666667	0	n/a	180800	KeyDown	41324	3	Middle	15
301.4700000000000	0	n/a	180883	KeyDown	41324	2	Ring	15
301.6116666666667	0	n/a	180968	KeyDown	41324	4	Index	15
301.7650000000000	0	n/a	181060	KeyDown	41324	4	Index	15
301.9183333333334	0	n/a	181152	KeyDown	41324	1	Little	15
302.0950000000000	0	n/a	181258	KeyDown	41324	3	Middle	15
302.2016666666667	0	n/a	181322	KeyDown	41324	2	Ring	15
302.3300000000000	0	n/a	181399	KeyDown	41324	4	Index	15
302.5033333333333	0	n/a	181503	KeyDown	41324	4	Index	15
302.6450000000000	0	n/a	181588	KeyDown	41324	1	Little	15
302.8283333333334	0	n/a	181698	KeyDown	41324	3	Middle	15
302.9550000000000	0	n/a	181774	KeyDown	41324	2	Ring	15
303.1000000000000	0	n/a	181861	KeyDown	41324	4	Index	15
303.2816666666667	0	n/a	181970	KeyDown	41324	4	Index	15
303.4550000000000	0	n/a	182074	KeyDown	41324	1	Little	15
303.6733333333333	0	n/a	182205	KeyDown	41324	3	Middle	15
303.8216666666667	0	n/a	182294	KeyDown	41324	2	Ring	15
303.9550000000000	0	n/a	182374	KeyDown	41324	4	Index	15
304.1000000000000	0	n/a	182461	KeyDown	41324	4	Index	15
304.2550000000000	0	n/a	182554	KeyDown	41324	1	Little	15
304.4566666666667	0	n/a	182675	KeyDown	41324	3	Middle	15
304.6116666666667	0	n/a	182768	KeyDown	41324	2	Ring	15
304.7566666666667	0	n/a	182855	KeyDown	41324	4	Index	15
304.9316666666667	0	n/a	182960	KeyDown	41324	4	Index	15
305.1583333333334	0	n/a	183096	KeyDown	41324	1	Little	15
305.5966666666667	0	n/a	183359	KeyDown	41324	3	Middle	15
305.7083333333334	0	n/a	183426	KeyDown	41324	2	Ring	15
305.9250000000000	0	n/a	183556	KeyDown	41324	4	Index	15
306.2133333333334	0	n/a	183729	KeyDown	41324	4	Index	15
306.4350000000000	0	n/a	183862	KeyDown	41324	1	Little	15
306.6416666666667	0	n/a	183986	KeyDown	41324	3	Middle	15
306.8150000000000	0	n/a	184090	KeyDown	41324	2	Ring	15
307.1650000000000	0	n/a	184300	KeyDown	41324	4	Index	15
307.3350000000000	0	n/a	184402	KeyDown	41324	4	Index	15
307.4950000000000	0	n/a	184498	KeyDown	41324	1	Little	15
307.6900000000000	0	n/a	184615	StopPractice	41324	n/a	n/a	15
307.6916666666667	0	n/a	184616	StartRest	XXXXX	n/a	n/a	15
317.7333333333333	0	n/a	190641	StopRest	XXXXX	n/a	n/a	15
317.7350000000000	0	UPPT001	190642	StartPractice	41324	n/a	n/a	16
318.4133333333334	0	n/a	191049	KeyDown	41324	4	Index	16
318.5483333333333	0	n/a	191130	KeyDown	41324	1	Little	16
318.6950000000000	0	n/a	191218	KeyDown	41324	3	Middle	16
318.8250000000000	0	n/a	191296	KeyDown	41324	2	Ring	16
318.9516666666667	0	n/a	191372	KeyDown	41324	4	Index	16
319.1233333333333	0	n/a	191475	KeyDown	41324	4	Index	16
319.2366666666667	0	n/a	191543	KeyDown	41324	1	Little	16
319.4066666666667	0	n/a	191645	KeyDown	41324	3	Middle	16
319.5116666666667	0	n/a	191708	KeyDown	41324	2	Ring	16
319.6583333333334	0	n/a	191796	KeyDown	41324	4	Index	16
319.8116666666667	0	n/a	191888	KeyDown	41324	4	Index	16
319.9450000000000	0	n/a	191968	KeyDown	41324	1	Little	16
320.0833333333334	0	n/a	192051	KeyDown	41324	3	Middle	16
320.2016666666667	0	n/a	192122	KeyDown	41324	2	Ring	16
320.3533333333334	0	n/a	192213	KeyDown	41324	4	Index	16
320.5350000000000	0	n/a	192322	KeyDown	41324	4	Index	16
320.6533333333334	0	n/a	192393	KeyDown	41324	1	Little	16
320.7983333333333	0	n/a	192480	KeyDown	41324	3	Middle	16
320.9083333333334	0	n/a	192546	KeyDown	41324	2	Ring	16
321.0966666666667	0	n/a	192659	KeyDown	41324	4	Index	16
321.2216666666667	0	n/a	192734	KeyDown	41324	4	Index	16
321.3466666666667	0	n/a	192809	KeyDown	41324	1	Little	16
321.4816666666667	0	n/a	192890	KeyDown	41324	3	Middle	16
321.6166666666667	0	n/a	192971	KeyDown	41324	2	Ring	16
321.7716666666667	0	n/a	193064	KeyDown	41324	4	Index	16
321.9250000000000	0	n/a	193156	KeyDown	41324	4	Index	16
322.0600000000000	0	n/a	193237	KeyDown	41324	1	Little	16
322.2883333333334	0	n/a	193374	KeyDown	41324	3	Middle	16
322.3816666666667	0	n/a	193430	KeyDown	41324	2	Ring	16
322.5533333333333	0	n/a	193533	KeyDown	41324	4	Index	16
322.7116666666667	0	n/a	193628	KeyDown	41324	4	Index	16
322.8466666666667	0	n/a	193709	KeyDown	41324	1	Little	16
323.0316666666667	0	n/a	193820	KeyDown	41324	3	Middle	16
323.2216666666667	0	n/a	193934	KeyDown	41324	2	Ring	16
323.5333333333334	0	n/a	194121	KeyDown	41324	4	Index	16
323.7033333333334	0	n/a	194223	KeyDown	41324	4	Index	16
323.8533333333334	0	n/a	194313	KeyDown	41324	1	Little	16
324.1950000000000	0	n/a	194518	KeyDown	41324	3	Middle	16
324.3383333333334	0	n/a	194604	KeyDown	41324	2	Ring	16
324.5166666666667	0	n/a	194711	KeyDown	41324	4	Index	16
324.6666666666667	0	n/a	194801	KeyDown	41324	4	Index	16
324.8066666666667	0	n/a	194885	KeyDown	41324	1	Little	16
325.2650000000000	0	n/a	195160	KeyDown	41324	3	Middle	16
325.4983333333333	0	n/a	195300	KeyDown	41324	2	Ring	16
325.8483333333334	0	n/a	195510	KeyDown	41324	4	Index	16
326.0466666666667	0	n/a	195629	KeyDown	41324	4	Index	16
326.2616666666667	0	n/a	195758	KeyDown	41324	1	Little	16
326.6333333333334	0	n/a	195981	KeyDown	41324	3	Middle	16
326.7333333333333	0	n/a	196041	KeyDown	41324	2	Ring	16
326.8916666666667	0	n/a	196136	KeyDown	41324	4	Index	16
327.0466666666667	0	n/a	196229	KeyDown	41324	4	Index	16
327.1533333333334	0	n/a	196293	KeyDown	41324	1	Little	16
327.2933333333334	0	n/a	196377	KeyDown	41324	3	Middle	16
327.4966666666667	0	n/a	196499	KeyDown	41324	2	Ring	16
327.7816666666667	0	n/a	196670	StopPractice	41324	n/a	n/a	16
327.7833333333334	0	n/a	196671	StartRest	XXXXX	n/a	n/a	16
337.8250000000000	0	n/a	202696	StopRest	XXXXX	n/a	n/a	16
337.8266666666667	0	UPPT001	202697	StartPractice	41324	n/a	n/a	17
338.3100000000000	0	n/a	202987	KeyDown	41324	4	Index	17
338.4583333333334	0	n/a	203076	KeyDown	41324	1	Little	17
338.6750000000000	0	n/a	203206	KeyDown	41324	3	Middle	17
338.8400000000000	0	n/a	203305	KeyDown	41324	2	Ring	17
338.9800000000000	0	n/a	203389	KeyDown	41324	4	Index	17
339.1366666666667	0	n/a	203483	KeyDown	41324	4	Index	17
339.2483333333333	0	n/a	203550	KeyDown	41324	1	Little	17
339.3983333333334	0	n/a	203640	KeyDown	41324	3	Middle	17
339.5333333333334	0	n/a	203721	KeyDown	41324	2	Ring	17
339.6650000000000	0	n/a	203800	KeyDown	41324	4	Index	17
339.8233333333334	0	n/a	203895	KeyDown	41324	4	Index	17
339.9366666666667	0	n/a	203963	KeyDown	41324	1	Little	17
340.0800000000000	0	n/a	204049	KeyDown	41324	3	Middle	17
340.1800000000000	0	n/a	204109	KeyDown	41324	2	Ring	17
340.3633333333333	0	n/a	204219	KeyDown	41324	4	Index	17
340.5566666666667	0	n/a	204335	KeyDown	41324	4	Index	17
340.6950000000001	0	n/a	204418	KeyDown	41324	1	Little	17
340.8583333333333	0	n/a	204516	KeyDown	41324	3	Middle	17
340.9700000000000	0	n/a	204583	KeyDown	41324	2	Ring	17
341.1900000000000	0	n/a	204715	KeyDown	41324	4	Index	17
341.3733333333333	0	n/a	204825	KeyDown	41324	4	Index	17
341.4833333333333	0	n/a	204891	KeyDown	41324	1	Little	17
341.6266666666667	0	n/a	204977	KeyDown	41324	3	Middle	17
341.7266666666667	0	n/a	205037	KeyDown	41324	2	Ring	17
341.9300000000000	0	n/a	205159	KeyDown	41324	4	Index	17
342.0983333333334	0	n/a	205260	KeyDown	41324	4	Index	17
342.2200000000000	0	n/a	205333	KeyDown	41324	1	Little	17
342.3466666666667	0	n/a	205409	KeyDown	41324	3	Middle	17
342.4683333333334	0	n/a	205482	KeyDown	41324	2	Ring	17
342.7183333333334	0	n/a	205632	KeyDown	41324	4	Index	17
342.9183333333334	0	n/a	205752	KeyDown	41324	4	Index	17
343.2466666666667	0	n/a	205949	KeyDown	41324	1	Little	17
343.4466666666667	0	n/a	206069	KeyDown	41324	3	Middle	17
343.5616666666667	0	n/a	206138	KeyDown	41324	2	Ring	17
343.7433333333333	0	n/a	206247	KeyDown	41324	4	Index	17
343.8733333333333	0	n/a	206325	KeyDown	41324	4	Index	17
344.0000000000000	0	n/a	206401	KeyDown	41324	1	Little	17
344.1516666666667	0	n/a	206492	KeyDown	41324	3	Middle	17
344.2866666666667	0	n/a	206573	KeyDown	41324	2	Ring	17
344.4933333333333	0	n/a	206697	KeyDown	41324	4	Index	17
344.6250000000000	0	n/a	206776	KeyDown	41324	4	Index	17
344.7716666666667	0	n/a	206864	KeyDown	41324	1	Little	17
344.9766666666667	0	n/a	206987	KeyDown	41324	3	Middle	17
345.1233333333333	0	n/a	207075	KeyDown	41324	2	Ring	17
345.3800000000000	0	n/a	207229	KeyDown	41324	4	Index	17
345.5350000000000	0	n/a	207322	KeyDown	41324	4	Index	17
345.7216666666667	0	n/a	207434	KeyDown	41324	1	Little	17
345.9700000000000	0	n/a	207583	KeyDown	41324	3	Middle	17
346.1133333333333	0	n/a	207669	KeyDown	41324	2	Ring	17
346.3450000000000	0	n/a	207808	KeyDown	41324	4	Index	17
346.5750000000000	0	n/a	207946	KeyDown	41324	4	Index	17
346.7550000000000	0	n/a	208054	KeyDown	41324	1	Little	17
347.1883333333333	0	n/a	208314	KeyDown	41324	3	Middle	17
347.3200000000001	0	n/a	208393	KeyDown	41324	2	Ring	17
347.4916666666667	0	n/a	208496	KeyDown	41324	4	Index	17
347.6683333333334	0	n/a	208602	KeyDown	41324	4	Index	17
347.7933333333334	0	n/a	208677	KeyDown	41324	1	Little	17
347.8733333333333	0	n/a	208725	StopPractice	41324	n/a	n/a	17
347.8750000000000	0	n/a	208726	StartRest	XXXXX	n/a	n/a	17
357.9166666666667	0	n/a	214751	StopRest	XXXXX	n/a	n/a	17
357.9183333333334	0	UPPT001	214752	StartPractice	41324	n/a	n/a	18
358.4000000000000	0	n/a	215041	KeyDown	41324	4	Index	18
358.5283333333334	0	n/a	215118	KeyDown	41324	1	Little	18
358.6866666666667	0	n/a	215213	KeyDown	41324	3	Middle	18
358.8116666666667	0	n/a	215288	KeyDown	41324	2	Ring	18
359.0166666666667	0	n/a	215411	KeyDown	41324	4	Index	18
359.1783333333333	0	n/a	215508	KeyDown	41324	4	Index	18
359.2983333333333	0	n/a	215580	KeyDown	41324	1	Little	18
359.4666666666667	0	n/a	215681	KeyDown	41324	3	Middle	18
359.5716666666667	0	n/a	215744	KeyDown	41324	2	Ring	18
359.7433333333333	0	n/a	215847	KeyDown	41324	4	Index	18
359.8950000000000	0	n/a	215938	KeyDown	41324	4	Index	18
360.0216666666667	0	n/a	216014	KeyDown	41324	1	Little	18
360.2116666666667	0	n/a	216128	KeyDown	41324	3	Middle	18
360.2816666666667	0	n/a	216170	KeyDown	41324	2	Ring	18
360.4300000000000	0	n/a	216259	KeyDown	41324	4	Index	18
360.6100000000000	0	n/a	216367	KeyDown	41324	4	Index	18
360.7266666666667	0	n/a	216437	KeyDown	41324	1	Little	18
360.8416666666667	0	n/a	216506	KeyDown	41324	3	Middle	18
360.9450000000001	0	n/a	216568	KeyDown	41324	2	Ring	18
361.1116666666667	0	n/a	216668	KeyDown	41324	4	Index	18
361.2583333333334	0	n/a	216756	KeyDown	41324	4	Index	18
361.4050000000000	0	n/a	216844	KeyDown	41324	1	Little	18
361.5300000000000	0	n/a	216919	KeyDown	41324	3	Middle	18
361.7216666666667	0	n/a	217034	KeyDown	41324	2	Ring	18
362.0500000000000	0	n/a	217231	KeyDown	41324	4	Index	18
362.2516666666667	0	n/a	217352	KeyDown	41324	4	Index	18
362.5700000000001	0	n/a	217543	KeyDown	41324	1	Little	18
362.8700000000000	0	n/a	217723	KeyDown	41324	3	Middle	18
362.9666666666667	0	n/a	217781	KeyDown	41324	2	Ring	18
363.1416666666667	0	n/a	217886	KeyDown	41324	4	Index	18
363.2950000000000	0	n/a	217978	KeyDown	41324	4	Index	18
363.4283333333333	0	n/a	218058	KeyDown	41324	1	Little	18
363.6266666666667	0	n/a	218177	KeyDown	41324	3	Middle	18
363.7650000000000	0	n/a	218260	KeyDown	41324	2	Ring	18
363.9450000000001	0	n/a	218368	KeyDown	41324	4	Index	18
364.1000000000000	0	n/a	218461	KeyDown	41324	4	Index	18
364.2683333333334	0	n/a	218562	KeyDown	41324	1	Little	18
364.8750000000000	0	n/a	218926	KeyDown	41324	3	Middle	18
365.0166666666667	0	n/a	219011	KeyDown	41324	2	Ring	18
365.2700000000000	0	n/a	219163	KeyDown	41324	4	Index	18
365.4283333333333	0	n/a	219258	KeyDown	41324	4	Index	18
365.5700000000001	0	n/a	219343	KeyDown	41324	1	Little	18
365.7466666666667	0	n/a	219449	KeyDown	41324	2	Ring	18
366.2450000000000	0	n/a	219748	KeyDown	41324	3	Middle	18
366.7150000000000	0	n/a	220030	KeyDown	41324	4	Index	18
366.8600000000000	0	n/a	220117	KeyDown	41324	4	Index	18
366.9766666666667	0	n/a	220187	KeyDown	41324	1	Little	18
367.1550000000000	0	n/a	220294	KeyDown	41324	3	Middle	18
367.2766666666667	0	n/a	220367	KeyDown	41324	2	Ring	18
367.4700000000000	0	n/a	220483	KeyDown	41324	4	Index	18
367.6383333333334	0	n/a	220584	KeyDown	41324	4	Index	18
367.8766666666667	0	n/a	220727	KeyDown	41324	3	Middle	18
367.9650000000000	0	n/a	220780	StopPractice	41324	n/a	n/a	18
367.9666666666667	0	n/a	220781	StartRest	XXXXX	n/a	n/a	18
378.0083333333334	0	n/a	226806	StopRest	XXXXX	n/a	n/a	18
378.0100000000000	0	UPPT001	226807	StartPractice	41324	n/a	n/a	19
378.5216666666667	0	n/a	227114	KeyDown	41324	4	Index	19
378.6500000000000	0	n/a	227191	KeyDown	41324	1	Little	19
378.8250000000000	0	n/a	227296	KeyDown	41324	3	Middle	19
378.9600000000000	0	n/a	227377	KeyDown	41324	2	Ring	19
379.1533333333334	0	n/a	227493	KeyDown	41324	4	Index	19
379.3133333333333	0	n/a	227589	KeyDown	41324	4	Index	19
379.5166666666667	0	n/a	227711	KeyDown	41324	1	Little	19
379.7016666666667	0	n/a	227822	KeyDown	41324	3	Middle	19
379.8283333333334	0	n/a	227898	KeyDown	41324	2	Ring	19
379.9766666666667	0	n/a	227987	KeyDown	41324	4	Index	19
380.1633333333334	0	n/a	228099	KeyDown	41324	4	Index	19
380.2950000000000	0	n/a	228178	KeyDown	41324	1	Little	19
380.6033333333334	0	n/a	228363	KeyDown	41324	3	Middle	19
380.7833333333334	0	n/a	228471	KeyDown	41324	2	Ring	19
380.9866666666667	0	n/a	228593	KeyDown	41324	4	Index	19
381.1533333333334	0	n/a	228693	KeyDown	41324	4	Index	19
381.3166666666667	0	n/a	228791	KeyDown	41324	1	Little	19
381.5366666666667	0	n/a	228923	KeyDown	41324	3	Middle	19
381.6816666666667	0	n/a	229010	KeyDown	41324	2	Ring	19
381.8716666666667	0	n/a	229124	KeyDown	41324	4	Index	19
382.0150000000000	0	n/a	229210	KeyDown	41324	4	Index	19
382.1583333333334	0	n/a	229296	KeyDown	41324	1	Little	19
382.3583333333333	0	n/a	229416	KeyDown	41324	3	Middle	19
382.5166666666667	0	n/a	229511	KeyDown	41324	2	Ring	19
383.0566666666667	0	n/a	229835	KeyDown	41324	4	Index	19
383.3266666666667	0	n/a	229997	KeyDown	41324	4	Index	19
383.4866666666667	0	n/a	230093	KeyDown	41324	1	Little	19
383.6750000000000	0	n/a	230206	KeyDown	41324	3	Middle	19
383.8366666666667	0	n/a	230303	KeyDown	41324	2	Ring	19
384.0316666666667	0	n/a	230420	KeyDown	41324	4	Index	19
384.1683333333334	0	n/a	230502	KeyDown	41324	4	Index	19
384.2966666666667	0	n/a	230579	KeyDown	41324	1	Little	19
384.5633333333333	0	n/a	230739	KeyDown	41324	3	Middle	19
384.6983333333334	0	n/a	230820	KeyDown	41324	2	Ring	19
385.0250000000000	0	n/a	231016	KeyDown	41324	4	Index	19
385.3366666666667	0	n/a	231203	KeyDown	41324	4	Index	19
385.5283333333334	0	n/a	231318	KeyDown	41324	1	Little	19
385.7716666666667	0	n/a	231464	KeyDown	41324	3	Middle	19
385.9316666666667	0	n/a	231560	KeyDown	41324	2	Ring	19
386.1133333333333	0	n/a	231669	KeyDown	41324	4	Index	19
386.2616666666667	0	n/a	231758	KeyDown	41324	4	Index	19
386.5916666666667	0	n/a	231956	KeyDown	41324	1	Little	19
386.8583333333333	0	n/a	232116	KeyDown	41324	3	Middle	19
386.9866666666667	0	n/a	232193	KeyDown	41324	2	Ring	19
387.2333333333333	0	n/a	232341	KeyDown	41324	4	Index	19
387.3633333333333	0	n/a	232419	KeyDown	41324	4	Index	19
387.5066666666667	0	n/a	232505	KeyDown	41324	1	Little	19
387.6766666666667	0	n/a	232607	KeyDown	41324	3	Middle	19
387.8216666666667	0	n/a	232694	KeyDown	41324	2	Ring	19
388.0083333333334	0	n/a	232806	KeyDown	41324	4	Index	19
388.0566666666667	0	n/a	232835	StopPractice	41324	n/a	n/a	19
388.0583333333333	0	n/a	232836	StartRest	XXXXX	n/a	n/a	19
398.1000000000000	0	n/a	238861	StopRest	XXXXX	n/a	n/a	19
398.1016666666667	0	UPPT001	238862	StartPractice	41324	n/a	n/a	20
398.4933333333333	0	n/a	239097	KeyDown	41324	4	Index	20
398.6283333333334	0	n/a	239178	KeyDown	41324	1	Little	20
398.8250000000000	0	n/a	239296	KeyDown	41324	3	Middle	20
398.9683333333334	0	n/a	239382	KeyDown	41324	2	Ring	20
399.1183333333333	0	n/a	239472	KeyDown	41324	4	Index	20
399.2983333333333	0	n/a	239580	KeyDown	41324	4	Index	20
399.4100000000000	0	n/a	239647	KeyDown	41324	1	Little	20
399.5400000000000	0	n/a	239725	KeyDown	41324	3	Middle	20
399.6850000000000	0	n/a	239812	KeyDown	41324	2	Ring	20
399.8833333333334	0	n/a	239931	KeyDown	41324	4	Index	20
400.0483333333333	0	n/a	240030	KeyDown	41324	4	Index	20
400.2200000000000	0	n/a	240133	KeyDown	41324	1	Little	20
400.4000000000000	0	n/a	240241	KeyDown	41324	3	Middle	20
400.5233333333334	0	n/a	240315	KeyDown	41324	2	Ring	20
400.6783333333333	0	n/a	240408	KeyDown	41324	4	Index	20
400.8750000000000	0	n/a	240526	KeyDown	41324	4	Index	20
401.0333333333334	0	n/a	240621	KeyDown	41324	1	Little	20
401.1500000000000	0	n/a	240691	KeyDown	41324	3	Middle	20
401.2933333333334	0	n/a	240777	KeyDown	41324	2	Ring	20
401.4416666666667	0	n/a	240866	KeyDown	41324	4	Index	20
401.6083333333333	0	n/a	240966	KeyDown	41324	4	Index	20
401.7533333333334	0	n/a	241053	KeyDown	41324	1	Little	20
401.9283333333333	0	n/a	241158	KeyDown	41324	3	Middle	20
402.0450000000000	0	n/a	241228	KeyDown	41324	2	Ring	20
402.2033333333334	0	n/a	241323	KeyDown	41324	4	Index	20
402.3683333333333	0	n/a	241422	KeyDown	41324	4	Index	20
402.5133333333334	0	n/a	241509	KeyDown	41324	1	Little	20
402.6683333333334	0	n/a	241602	KeyDown	41324	3	Middle	20
402.7883333333334	0	n/a	241674	KeyDown	41324	2	Ring	20
402.9450000000001	0	n/a	241768	KeyDown	41324	4	Index	20
403.1033333333334	0	n/a	241863	KeyDown	41324	4	Index	20
403.2433333333333	0	n/a	241947	KeyDown	41324	1	Little	20
403.3783333333334	0	n/a	242028	KeyDown	41324	3	Middle	20
403.4950000000000	0	n/a	242098	KeyDown	41324	2	Ring	20
403.6483333333334	0	n/a	242190	KeyDown	41324	4	Index	20
403.8366666666667	0	n/a	242303	KeyDown	41324	4	Index	20
404.0316666666667	0	n/a	242420	KeyDown	41324	1	Little	20
404.5850000000000	0	n/a	242752	KeyDown	41324	3	Middle	20
404.7283333333334	0	n/a	242838	KeyDown	41324	2	Ring	20
404.9700000000000	0	n/a	242983	KeyDown	41324	4	Index	20
405.1116666666667	0	n/a	243068	KeyDown	41324	4	Index	20
405.2933333333334	0	n/a	243177	KeyDown	41324	1	Little	20
405.6133333333333	0	n/a	243369	KeyDown	41324	3	Middle	20
405.7700000000000	0	n/a	243463	KeyDown	41324	2	Ring	20
406.0183333333334	0	n/a	243612	KeyDown	41324	4	Index	20
406.1616666666667	0	n/a	243698	KeyDown	41324	4	Index	20
406.3033333333333	0	n/a	243783	KeyDown	41324	1	Little	20
406.4900000000000	0	n/a	243895	KeyDown	41324	3	Middle	20
406.7816666666667	0	n/a	244070	KeyDown	41324	2	Ring	20
407.1300000000001	0	n/a	244279	KeyDown	41324	4	Index	20
407.3116666666667	0	n/a	244388	KeyDown	41324	4	Index	20
407.4583333333334	0	n/a	244476	KeyDown	41324	1	Little	20
407.6900000000001	0	n/a	244615	KeyDown	41324	3	Middle	20
407.8133333333333	0	n/a	244689	KeyDown	41324	2	Ring	20
408.0050000000001	0	n/a	244804	KeyDown	41324	4	Index	20
408.1483333333334	0	n/a	244890	StopPractice	41324	n/a	n/a	20
408.1500000000000	0	n/a	244891	StartRest	XXXXX	n/a	n/a	20
418.1916666666667	0	n/a	250916	StopRest	XXXXX	n/a	n/a	20
418.1933333333334	0	UPPT001	250917	StartPractice	41324	n/a	n/a	21
418.5950000000000	0	n/a	251158	KeyDown	41324	4	Index	21
418.7433333333333	0	n/a	251247	KeyDown	41324	1	Little	21
418.8983333333334	0	n/a	251340	KeyDown	41324	3	Middle	21
419.0183333333334	0	n/a	251412	KeyDown	41324	2	Ring	21
419.1500000000000	0	n/a	251491	KeyDown	41324	4	Index	21
419.3150000000001	0	n/a	251590	KeyDown	41324	4	Index	21
419.5550000000000	0	n/a	251734	KeyDown	41324	1	Little	21
419.6650000000000	0	n/a	251800	KeyDown	41324	3	Middle	21
419.7900000000000	0	n/a	251875	KeyDown	41324	2	Ring	21
419.9316666666667	0	n/a	251960	KeyDown	41324	4	Index	21
420.1016666666667	0	n/a	252062	KeyDown	41324	4	Index	21
420.2350000000000	0	n/a	252142	KeyDown	41324	1	Little	21
420.3766666666667	0	n/a	252227	KeyDown	41324	3	Middle	21
420.4966666666667	0	n/a	252299	KeyDown	41324	2	Ring	21
420.6550000000000	0	n/a	252394	KeyDown	41324	4	Index	21
420.8200000000001	0	n/a	252493	KeyDown	41324	4	Index	21
421.0250000000000	0	n/a	252616	KeyDown	41324	1	Little	21
421.1883333333333	0	n/a	252714	KeyDown	41324	3	Middle	21
421.2833333333334	0	n/a	252771	KeyDown	41324	2	Ring	21
421.4983333333333	0	n/a	252900	KeyDown	41324	4	Index	21
421.7216666666667	0	n/a	253034	KeyDown	41324	4	Index	21
421.8650000000000	0	n/a	253120	KeyDown	41324	1	Little	21
422.1383333333334	0	n/a	253284	KeyDown	41324	3	Middle	21
422.2683333333334	0	n/a	253362	KeyDown	41324	2	Ring	21
422.4416666666667	0	n/a	253466	KeyDown	41324	4	Index	21
422.5916666666667	0	n/a	253556	KeyDown	41324	4	Index	21
422.7100000000000	0	n/a	253627	KeyDown	41324	1	Little	21
422.8433333333334	0	n/a	253707	KeyDown	41324	3	Middle	21
422.9883333333333	0	n/a	253794	KeyDown	41324	2	Ring	21
423.2050000000000	0	n/a	253924	KeyDown	41324	4	Index	21
423.3416666666667	0	n/a	254006	KeyDown	41324	4	Index	21
423.4516666666667	0	n/a	254072	KeyDown	41324	1	Little	21
423.5866666666667	0	n/a	254153	KeyDown	41324	3	Middle	21
423.6916666666667	0	n/a	254216	KeyDown	41324	2	Ring	21
423.8800000000001	0	n/a	254329	KeyDown	41324	4	Index	21
424.0716666666667	0	n/a	254444	KeyDown	41324	4	Index	21
424.2533333333334	0	n/a	254553	KeyDown	41324	1	Little	21
424.4950000000000	0	n/a	254698	KeyDown	41324	4	Index	21
424.8883333333334	0	n/a	254934	KeyDown	41324	3	Middle	21
424.9966666666667	0	n/a	254999	KeyDown	41324	2	Ring	21
425.3283333333334	0	n/a	255198	KeyDown	41324	4	Index	21
425.4833333333333	0	n/a	255291	KeyDown	41324	4	Index	21
425.8316666666667	0	n/a	255500	KeyDown	41324	1	Little	21
426.0633333333333	0	n/a	255639	KeyDown	41324	3	Middle	21
426.2000000000000	0	n/a	255721	KeyDown	41324	2	Ring	21
426.3450000000000	0	n/a	255808	KeyDown	41324	4	Index	21
426.5133333333334	0	n/a	255909	KeyDown	41324	4	Index	21
426.6416666666667	0	n/a	255986	KeyDown	41324	1	Little	21
426.8000000000000	0	n/a	256081	KeyDown	41324	3	Middle	21
426.9516666666667	0	n/a	256172	KeyDown	41324	2	Ring	21
427.2566666666667	0	n/a	256355	KeyDown	41324	4	Index	21
427.4283333333333	0	n/a	256458	KeyDown	41324	4	Index	21
427.5550000000000	0	n/a	256534	KeyDown	41324	1	Little	21
427.8566666666667	0	n/a	256715	KeyDown	41324	3	Middle	21
427.9983333333333	0	n/a	256800	KeyDown	41324	2	Ring	21
428.1400000000000	0	n/a	256885	KeyDown	41324	4	Index	21
428.2400000000000	0	n/a	256945	StopPractice	41324	n/a	n/a	21
428.2416666666667	0	n/a	256946	StartRest	XXXXX	n/a	n/a	21
438.2833333333334	0	n/a	262971	StopRest	XXXXX	n/a	n/a	21
438.2850000000000	0	UPPT001	262972	StartPractice	41324	n/a	n/a	22
438.9650000000000	0	n/a	263380	KeyDown	41324	4	Index	22
439.0766666666667	0	n/a	263447	KeyDown	41324	1	Little	22
439.2733333333334	0	n/a	263565	KeyDown	41324	2	Ring	22
439.8283333333334	0	n/a	263898	KeyDown	41324	2	Ring	22
440.1650000000000	0	n/a	264100	KeyDown	41324	4	Index	22
440.3283333333334	0	n/a	264198	KeyDown	41324	4	Index	22
440.4916666666667	0	n/a	264296	KeyDown	41324	1	Little	22
440.6833333333333	0	n/a	264411	KeyDown	41324	3	Middle	22
440.8033333333333	0	n/a	264483	KeyDown	41324	2	Ring	22
440.9750000000000	0	n/a	264586	KeyDown	41324	4	Index	22
441.1466666666667	0	n/a	264689	KeyDown	41324	4	Index	22
441.2683333333334	0	n/a	264762	KeyDown	41324	1	Little	22
441.7850000000000	0	n/a	265072	KeyDown	41324	3	Middle	22
441.9683333333334	0	n/a	265182	KeyDown	41324	2	Ring	22
442.1316666666667	0	n/a	265280	KeyDown	41324	4	Index	22
442.2816666666667	0	n/a	265370	KeyDown	41324	4	Index	22
442.3950000000000	0	n/a	265438	KeyDown	41324	1	Little	22
442.5950000000000	0	n/a	265558	KeyDown	41324	3	Middle	22
442.7233333333334	0	n/a	265635	KeyDown	41324	2	Ring	22
442.8816666666667	0	n/a	265730	KeyDown	41324	4	Index	22
443.0283333333334	0	n/a	265818	KeyDown	41324	4	Index	22
443.1433333333334	0	n/a	265887	KeyDown	41324	1	Little	22
443.2766666666667	0	n/a	265967	KeyDown	41324	3	Middle	22
443.4150000000000	0	n/a	266050	KeyDown	41324	2	Ring	22
443.6116666666667	0	n/a	266168	KeyDown	41324	4	Index	22
443.7433333333333	0	n/a	266247	KeyDown	41324	4	Index	22
443.8616666666667	0	n/a	266318	KeyDown	41324	1	Little	22
444.0350000000000	0	n/a	266422	KeyDown	41324	3	Middle	22
444.1783333333333	0	n/a	266508	KeyDown	41324	2	Ring	22
444.3450000000000	0	n/a	266608	KeyDown	41324	4	Index	22
444.5516666666667	0	n/a	266732	KeyDown	41324	4	Index	22
444.6666666666667	0	n/a	266801	KeyDown	41324	1	Little	22
444.9250000000000	0	n/a	266956	KeyDown	41324	3	Middle	22
445.0550000000000	0	n/a	267034	KeyDown	41324	2	Ring	22
445.2150000000000	0	n/a	267130	KeyDown	41324	4	Index	22
445.3750000000001	0	n/a	267226	KeyDown	41324	4	Index	22
445.4750000000000	0	n/a	267286	KeyDown	41324	1	Little	22
445.6583333333334	0	n/a	267396	KeyDown	41324	3	Middle	22
445.7916666666667	0	n/a	267476	KeyDown	41324	2	Ring	22
446.1083333333333	0	n/a	267666	KeyDown	41324	4	Index	22
446.4283333333333	0	n/a	267858	KeyDown	41324	4	Index	22
446.6466666666667	0	n/a	267989	KeyDown	41324	1	Little	22
447.1566666666667	0	n/a	268295	KeyDown	41324	3	Middle	22
447.2783333333334	0	n/a	268368	KeyDown	41324	2	Ring	22
447.4733333333334	0	n/a	268485	KeyDown	41324	4	Index	22
447.6316666666667	0	n/a	268580	KeyDown	41324	4	Index	22
447.7433333333333	0	n/a	268647	KeyDown	41324	1	Little	22
447.9250000000000	0	n/a	268756	KeyDown	41324	3	Middle	22
448.1016666666667	0	n/a	268862	KeyDown	41324	2	Ring	22
448.2966666666667	0	n/a	268979	KeyDown	41324	2	Ring	22
448.3316666666667	0	n/a	269000	StopPractice	41324	n/a	n/a	22
448.3333333333334	0	n/a	269001	StartRest	XXXXX	n/a	n/a	22
458.3750000000001	0	n/a	275026	StopRest	XXXXX	n/a	n/a	22
458.3766666666667	0	UPPT001	275027	StartPractice	41324	n/a	n/a	23
458.8316666666667	0	n/a	275300	KeyDown	41324	4	Index	23
458.9500000000000	0	n/a	275371	KeyDown	41324	1	Little	23
459.2333333333333	0	n/a	275541	KeyDown	41324	3	Middle	23
459.4233333333333	0	n/a	275655	KeyDown	41324	2	Ring	23
459.5933333333334	0	n/a	275757	KeyDown	41324	4	Index	23
459.7583333333334	0	n/a	275856	KeyDown	41324	4	Index	23
459.9233333333333	0	n/a	275955	KeyDown	41324	1	Little	23
460.0750000000000	0	n/a	276046	KeyDown	41324	3	Middle	23
460.1950000000001	0	n/a	276118	KeyDown	41324	2	Ring	23
460.3700000000000	0	n/a	276223	KeyDown	41324	4	Index	23
460.5316666666667	0	n/a	276320	KeyDown	41324	4	Index	23
460.6583333333334	0	n/a	276396	KeyDown	41324	1	Little	23
460.8016666666667	0	n/a	276482	KeyDown	41324	3	Middle	23
460.9200000000000	0	n/a	276553	KeyDown	41324	2	Ring	23
461.0850000000000	0	n/a	276652	KeyDown	41324	4	Index	23
461.2216666666667	0	n/a	276734	KeyDown	41324	4	Index	23
461.3683333333333	0	n/a	276822	KeyDown	41324	1	Little	23
461.5466666666667	0	n/a	276929	KeyDown	41324	3	Middle	23
461.6683333333334	0	n/a	277002	KeyDown	41324	2	Ring	23
461.8533333333334	0	n/a	277113	KeyDown	41324	4	Index	23
462.0050000000001	0	n/a	277204	KeyDown	41324	4	Index	23
462.1166666666667	0	n/a	277271	KeyDown	41324	1	Little	23
462.3333333333334	0	n/a	277401	KeyDown	41324	3	Middle	23
462.4450000000001	0	n/a	277468	KeyDown	41324	2	Ring	23
462.6233333333333	0	n/a	277575	KeyDown	41324	4	Index	23
462.7733333333334	0	n/a	277665	KeyDown	41324	4	Index	23
462.8900000000000	0	n/a	277735	KeyDown	41324	1	Little	23
463.0850000000000	0	n/a	277852	KeyDown	41324	3	Middle	23
463.1900000000001	0	n/a	277915	KeyDown	41324	2	Ring	23
463.3633333333333	0	n/a	278019	KeyDown	41324	4	Index	23
463.5183333333334	0	n/a	278112	KeyDown	41324	4	Index	23
463.6433333333334	0	n/a	278187	KeyDown	41324	1	Little	23
463.8616666666667	0	n/a	278318	KeyDown	41324	3	Middle	23
463.9500000000000	0	n/a	278371	KeyDown	41324	2	Ring	23
464.1850000000000	0	n/a	278512	KeyDown	41324	4	Index	23
464.3516666666667	0	n/a	278612	KeyDown	41324	4	Index	23
464.4800000000000	0	n/a	278689	KeyDown	41324	1	Little	23
464.6416666666667	0	n/a	278786	KeyDown	41324	3	Middle	23
464.7450000000000	0	n/a	278848	KeyDown	41324	2	Ring	23
464.8783333333334	0	n/a	278928	KeyDown	41324	2	Ring	23
465.2050000000000	0	n/a	279124	KeyDown	41324	4	Index	23
465.3916666666667	0	n/a	279236	KeyDown	41324	4	Index	23
465.6133333333333	0	n/a	279369	KeyDown	41324	1	Little	23
465.8533333333334	0	n/a	279513	KeyDown	41324	3	Middle	23
466.0383333333334	0	n/a	279624	KeyDown	41324	2	Ring	23
466.4116666666667	0	n/a	279848	KeyDown	41324	4	Index	23
466.5583333333333	0	n/a	279936	KeyDown	41324	4	Index	23
466.6733333333333	0	n/a	280005	KeyDown	41324	1	Little	23
466.9083333333334	0	n/a	280146	KeyDown	41324	3	Middle	23
467.0400000000000	0	n/a	280225	KeyDown	41324	2	Ring	23
467.2533333333334	0	n/a	280353	KeyDown	41324	4	Index	23
467.3700000000000	0	n/a	280423	KeyDown	41324	4	Index	23
467.5716666666667	0	n/a	280544	KeyDown	41324	1	Little	23
467.7500000000001	0	n/a	280651	KeyDown	41324	3	Middle	23
467.9000000000000	0	n/a	280741	KeyDown	41324	2	Ring	23
468.0633333333334	0	n/a	280839	KeyDown	41324	4	Index	23
468.2083333333334	0	n/a	280926	KeyDown	41324	4	Index	23
468.3433333333334	0	n/a	281007	KeyDown	41324	1	Little	23
468.4233333333333	0	n/a	281055	StopPractice	41324	n/a	n/a	23
468.4250000000000	0	n/a	281056	StartRest	XXXXX	n/a	n/a	23
478.4683333333334	0	n/a	287082	StopRest	XXXXX	n/a	n/a	23
478.4700000000000	0	UPPT001	287083	StartPractice	41324	n/a	n/a	24
478.7366666666667	0	n/a	287243	KeyDown	41324	4	Index	24
478.9100000000000	0	n/a	287347	KeyDown	41324	1	Little	24
479.1100000000000	0	n/a	287467	KeyDown	41324	3	Middle	24
479.2316666666667	0	n/a	287540	KeyDown	41324	2	Ring	24
479.3733333333334	0	n/a	287625	KeyDown	41324	4	Index	24
479.5233333333334	0	n/a	287715	KeyDown	41324	4	Index	24
479.6183333333333	0	n/a	287772	KeyDown	41324	1	Little	24
479.7366666666667	0	n/a	287843	KeyDown	41324	3	Middle	24
479.8516666666667	0	n/a	287912	KeyDown	41324	2	Ring	24
480.0183333333334	0	n/a	288012	KeyDown	41324	4	Index	24
480.1483333333334	0	n/a	288090	KeyDown	41324	4	Index	24
480.2666666666667	0	n/a	288161	KeyDown	41324	1	Little	24
480.3883333333334	0	n/a	288234	KeyDown	41324	3	Middle	24
480.4816666666667	0	n/a	288290	KeyDown	41324	2	Ring	24
480.6416666666667	0	n/a	288386	KeyDown	41324	4	Index	24
480.8116666666667	0	n/a	288488	KeyDown	41324	4	Index	24
480.9500000000000	0	n/a	288571	KeyDown	41324	1	Little	24
481.0766666666667	0	n/a	288647	KeyDown	41324	3	Middle	24
481.2000000000000	0	n/a	288721	KeyDown	41324	2	Ring	24
481.3566666666667	0	n/a	288815	KeyDown	41324	4	Index	24
481.5116666666667	0	n/a	288908	KeyDown	41324	4	Index	24
481.6533333333334	0	n/a	288993	KeyDown	41324	1	Little	24
481.8083333333333	0	n/a	289086	KeyDown	41324	2	Ring	24
482.0583333333333	0	n/a	289236	KeyDown	41324	3	Middle	24
482.1833333333333	0	n/a	289311	KeyDown	41324	2	Ring	24
482.5500000000000	0	n/a	289531	KeyDown	41324	4	Index	24
482.7066666666667	0	n/a	289625	KeyDown	41324	4	Index	24
482.8833333333334	0	n/a	289731	KeyDown	41324	1	Little	24
483.0516666666667	0	n/a	289832	KeyDown	41324	3	Middle	24
483.4966666666667	0	n/a	290099	KeyDown	41324	2	Ring	24
483.7300000000000	0	n/a	290239	KeyDown	41324	4	Index	24
483.8866666666667	0	n/a	290333	KeyDown	41324	4	Index	24
484.0116666666667	0	n/a	290408	KeyDown	41324	1	Little	24
484.2383333333333	0	n/a	290544	KeyDown	41324	3	Middle	24
484.3950000000000	0	n/a	290638	KeyDown	41324	2	Ring	24
484.5500000000000	0	n/a	290731	KeyDown	41324	4	Index	24
484.7016666666667	0	n/a	290822	KeyDown	41324	4	Index	24
484.8216666666667	0	n/a	290894	KeyDown	41324	1	Little	24
485.0050000000001	0	n/a	291004	KeyDown	41324	3	Middle	24
485.1333333333334	0	n/a	291081	KeyDown	41324	2	Ring	24
485.3466666666667	0	n/a	291209	KeyDown	41324	4	Index	24
485.5050000000001	0	n/a	291304	KeyDown	41324	4	Index	24
485.6316666666667	0	n/a	291380	KeyDown	41324	1	Little	24
485.8283333333334	0	n/a	291498	KeyDown	41324	3	Middle	24
485.9350000000001	0	n/a	291562	KeyDown	41324	2	Ring	24
486.1016666666667	0	n/a	291662	KeyDown	41324	4	Index	24
486.2883333333334	0	n/a	291774	KeyDown	41324	4	Index	24
486.4400000000001	0	n/a	291865	KeyDown	41324	1	Little	24
486.6300000000001	0	n/a	291979	KeyDown	41324	3	Middle	24
486.7550000000001	0	n/a	292054	KeyDown	41324	2	Ring	24
486.9483333333334	0	n/a	292170	KeyDown	41324	4	Index	24
487.1333333333334	0	n/a	292281	KeyDown	41324	4	Index	24
487.2566666666667	0	n/a	292355	KeyDown	41324	1	Little	24
487.5683333333334	0	n/a	292542	KeyDown	41324	3	Middle	24
487.7183333333334	0	n/a	292632	KeyDown	41324	2	Ring	24
487.9216666666667	0	n/a	292754	KeyDown	41324	4	Index	24
488.4133333333334	0	n/a	293049	KeyDown	41324	4	Index	24
488.5166666666667	0	n/a	293111	StopPractice	41324	n/a	n/a	24
488.5183333333334	0	n/a	293112	StartRest	XXXXX	n/a	n/a	24
498.5600000000001	0	n/a	299137	StopRest	XXXXX	n/a	n/a	24
498.5616666666667	0	UPPT001	299138	StartPractice	41324	n/a	n/a	25
499.0516666666667	0	n/a	299432	KeyDown	41324	4	Index	25
499.1883333333334	0	n/a	299514	KeyDown	41324	1	Little	25
499.4300000000000	0	n/a	299659	KeyDown	41324	3	Middle	25
499.5200000000000	0	n/a	299713	KeyDown	41324	2	Ring	25
499.6833333333333	0	n/a	299811	KeyDown	41324	4	Index	25
499.8466666666667	0	n/a	299909	KeyDown	41324	4	Index	25
499.9783333333334	0	n/a	299988	KeyDown	41324	1	Little	25
500.0900000000000	0	n/a	300055	KeyDown	41324	3	Middle	25
500.2233333333334	0	n/a	300135	KeyDown	41324	2	Ring	25
501.0650000000001	0	n/a	300640	KeyDown	41324	4	Index	25
501.2216666666667	0	n/a	300734	KeyDown	41324	4	Index	25
501.4233333333333	0	n/a	300855	KeyDown	41324	3	Middle	25
502.0016666666667	0	n/a	301202	KeyDown	41324	3	Middle	25
502.0700000000001	0	n/a	301243	KeyDown	41324	2	Ring	25
502.4800000000000	0	n/a	301489	KeyDown	41324	4	Index	25
502.6583333333334	0	n/a	301596	KeyDown	41324	4	Index	25
502.9750000000000	0	n/a	301786	KeyDown	41324	1	Little	25
503.1400000000000	0	n/a	301885	KeyDown	41324	3	Middle	25
503.2400000000000	0	n/a	301945	KeyDown	41324	2	Ring	25
503.4133333333334	0	n/a	302049	KeyDown	41324	4	Index	25
503.5883333333334	0	n/a	302154	KeyDown	41324	4	Index	25
503.7183333333334	0	n/a	302232	KeyDown	41324	1	Little	25
503.8950000000000	0	n/a	302338	KeyDown	41324	3	Middle	25
504.0816666666667	0	n/a	302450	KeyDown	41324	2	Ring	25
504.2366666666667	0	n/a	302543	KeyDown	41324	4	Index	25
504.3800000000001	0	n/a	302629	KeyDown	41324	4	Index	25
504.5266666666667	0	n/a	302717	KeyDown	41324	1	Little	25
504.6850000000001	0	n/a	302812	KeyDown	41324	3	Middle	25
504.8533333333334	0	n/a	302913	KeyDown	41324	2	Ring	25
505.0433333333334	0	n/a	303027	KeyDown	41324	4	Index	25
505.2533333333334	0	n/a	303153	KeyDown	41324	4	Index	25
505.3900000000000	0	n/a	303235	KeyDown	41324	1	Little	25
505.5600000000001	0	n/a	303337	KeyDown	41324	3	Middle	25
505.6516666666667	0	n/a	303392	KeyDown	41324	2	Ring	25
505.8350000000000	0	n/a	303502	KeyDown	41324	4	Index	25
506.0283333333334	0	n/a	303618	KeyDown	41324	4	Index	25
506.1550000000000	0	n/a	303694	KeyDown	41324	1	Little	25
506.4383333333334	0	n/a	303864	KeyDown	41324	3	Middle	25
506.5650000000001	0	n/a	303940	KeyDown	41324	2	Ring	25
506.7133333333334	0	n/a	304029	KeyDown	41324	4	Index	25
506.8933333333334	0	n/a	304137	KeyDown	41324	4	Index	25
507.0683333333334	0	n/a	304242	KeyDown	41324	1	Little	25
507.2366666666667	0	n/a	304343	KeyDown	41324	3	Middle	25
507.3550000000000	0	n/a	304414	KeyDown	41324	2	Ring	25
507.5600000000001	0	n/a	304537	KeyDown	41324	4	Index	25
507.7916666666667	0	n/a	304676	KeyDown	41324	4	Index	25
507.9900000000000	0	n/a	304795	KeyDown	41324	1	Little	25
508.4483333333334	0	n/a	305070	KeyDown	41324	3	Middle	25
508.5733333333334	0	n/a	305145	KeyDown	41324	2	Ring	25
508.6083333333333	0	n/a	305166	StopPractice	41324	n/a	n/a	25
508.6100000000000	0	n/a	305167	StartRest	XXXXX	n/a	n/a	25
518.6516666666668	0	n/a	311192	StopRest	XXXXX	n/a	n/a	25
518.6533333333334	0	UPPT001	311193	StartPractice	41324	n/a	n/a	26
519.1366666666667	0	n/a	311483	KeyDown	41324	4	Index	26
519.2716666666666	0	n/a	311564	KeyDown	41324	1	Little	26
519.5116666666667	0	n/a	311708	KeyDown	41324	3	Middle	26
519.6100000000000	0	n/a	311767	KeyDown	41324	2	Ring	26
519.7916666666667	0	n/a	311876	KeyDown	41324	4	Index	26
519.9666666666667	0	n/a	311981	KeyDown	41324	4	Index	26
520.1433333333333	0	n/a	312087	KeyDown	41324	1	Little	26
520.4850000000000	0	n/a	312292	KeyDown	41324	3	Middle	26
520.6366666666667	0	n/a	312383	KeyDown	41324	2	Ring	26
520.8033333333334	0	n/a	312483	KeyDown	41324	4	Index	26
520.9633333333334	0	n/a	312579	KeyDown	41324	4	Index	26
521.0733333333334	0	n/a	312645	KeyDown	41324	1	Little	26
521.2000000000000	0	n/a	312721	KeyDown	41324	3	Middle	26
521.3133333333334	0	n/a	312789	KeyDown	41324	2	Ring	26
521.4550000000000	0	n/a	312874	KeyDown	41324	4	Index	26
521.9200000000001	0	n/a	313153	KeyDown	41324	4	Index	26
522.2116666666667	0	n/a	313328	KeyDown	41324	4	Index	26
522.4266666666667	0	n/a	313457	KeyDown	41324	1	Little	26
522.6300000000000	0	n/a	313579	KeyDown	41324	3	Middle	26
522.7750000000000	0	n/a	313666	KeyDown	41324	2	Ring	26
522.9400000000001	0	n/a	313765	KeyDown	41324	4	Index	26
523.0883333333334	0	n/a	313854	KeyDown	41324	4	Index	26
523.2250000000000	0	n/a	313936	KeyDown	41324	1	Little	26
523.4516666666667	0	n/a	314072	KeyDown	41324	3	Middle	26
523.5416666666667	0	n/a	314126	KeyDown	41324	2	Ring	26
523.7516666666667	0	n/a	314252	KeyDown	41324	4	Index	26
523.8866666666667	0	n/a	314333	KeyDown	41324	4	Index	26
523.9916666666667	0	n/a	314396	KeyDown	41324	1	Little	26
524.1550000000001	0	n/a	314494	KeyDown	41324	3	Middle	26
524.2500000000000	0	n/a	314551	KeyDown	41324	2	Ring	26
524.4450000000001	0	n/a	314668	KeyDown	41324	4	Index	26
524.5950000000000	0	n/a	314758	KeyDown	41324	4	Index	26
524.7566666666667	0	n/a	314855	KeyDown	41324	1	Little	26
525.1100000000000	0	n/a	315067	KeyDown	41324	3	Middle	26
525.2666666666667	0	n/a	315161	KeyDown	41324	2	Ring	26
525.4666666666667	0	n/a	315281	KeyDown	41324	4	Index	26
525.6166666666667	0	n/a	315371	KeyDown	41324	4	Index	26
525.7266666666667	0	n/a	315437	KeyDown	41324	1	Little	26
526.1083333333333	0	n/a	315666	KeyDown	41324	3	Middle	26
526.2550000000000	0	n/a	315754	KeyDown	41324	2	Ring	26
526.4483333333334	0	n/a	315870	KeyDown	41324	4	Index	26
526.6350000000000	0	n/a	315982	KeyDown	41324	4	Index	26
527.0066666666667	0	n/a	316205	KeyDown	41324	1	Little	26
527.2900000000001	0	n/a	316375	KeyDown	41324	3	Middle	26
527.4200000000001	0	n/a	316453	KeyDown	41324	2	Ring	26
527.5683333333334	0	n/a	316542	KeyDown	41324	4	Index	26
527.7433333333333	0	n/a	316647	KeyDown	41324	4	Index	26
527.8900000000000	0	n/a	316735	KeyDown	41324	1	Little	26
528.2050000000000	0	n/a	316924	KeyDown	41324	3	Middle	26
528.3050000000001	0	n/a	316984	KeyDown	41324	2	Ring	26
528.4516666666667	0	n/a	317072	KeyDown	41324	4	Index	26
528.6416666666667	0	n/a	317186	KeyDown	41324	4	Index	26
528.7000000000000	0	n/a	317221	StopPractice	41324	n/a	n/a	26
528.7016666666667	0	n/a	317222	StartRest	XXXXX	n/a	n/a	26
538.7416666666667	0	n/a	323246	StopRest	XXXXX	n/a	n/a	26
538.7433333333333	0	UPPT001	323247	StartPractice	41324	n/a	n/a	27
539.1666666666667	0	n/a	323501	KeyDown	41324	4	Index	27
539.3116666666667	0	n/a	323588	KeyDown	41324	1	Little	27
539.4750000000000	0	n/a	323686	KeyDown	41324	3	Middle	27
539.5966666666667	0	n/a	323759	KeyDown	41324	2	Ring	27
539.7350000000000	0	n/a	323842	KeyDown	41324	4	Index	27
539.9066666666668	0	n/a	323945	KeyDown	41324	4	Index	27
540.0500000000001	0	n/a	324031	KeyDown	41324	1	Little	27
540.1766666666667	0	n/a	324107	KeyDown	41324	3	Middle	27
540.2883333333334	0	n/a	324174	KeyDown	41324	2	Ring	27
540.4300000000001	0	n/a	324259	KeyDown	41324	4	Index	27
540.6116666666667	0	n/a	324368	KeyDown	41324	4	Index	27
540.7200000000000	0	n/a	324433	KeyDown	41324	1	Little	27
540.8383333333334	0	n/a	324504	KeyDown	41324	3	Middle	27
540.9266666666667	0	n/a	324557	KeyDown	41324	2	Ring	27
541.0866666666667	0	n/a	324653	KeyDown	41324	4	Index	27
541.2600000000000	0	n/a	324757	KeyDown	41324	4	Index	27
541.5700000000001	0	n/a	324943	KeyDown	41324	1	Little	27
541.9916666666667	0	n/a	325196	KeyDown	41324	3	Middle	27
542.1033333333334	0	n/a	325263	KeyDown	41324	2	Ring	27
542.2666666666667	0	n/a	325361	KeyDown	41324	4	Index	27
542.4450000000001	0	n/a	325468	KeyDown	41324	4	Index	27
542.7850000000001	0	n/a	325672	KeyDown	41324	1	Little	27
542.9916666666667	0	n/a	325796	KeyDown	41324	3	Middle	27
543.1533333333334	0	n/a	325893	KeyDown	41324	2	Ring	27
543.2950000000001	0	n/a	325978	KeyDown	41324	4	Index	27
543.4616666666667	0	n/a	326078	KeyDown	41324	4	Index	27
543.6766666666667	0	n/a	326207	KeyDown	41324	1	Little	27
543.8433333333334	0	n/a	326307	KeyDown	41324	3	Middle	27
543.9700000000000	0	n/a	326383	KeyDown	41324	2	Ring	27
544.1200000000000	0	n/a	326473	KeyDown	41324	4	Index	27
544.2900000000001	0	n/a	326575	KeyDown	41324	4	Index	27
544.4683333333334	0	n/a	326682	KeyDown	41324	1	Little	27
544.7283333333334	0	n/a	326838	KeyDown	41324	2	Ring	27
545.2216666666667	0	n/a	327134	KeyDown	41324	2	Ring	27
545.8750000000000	0	n/a	327526	KeyDown	41324	4	Index	27
546.0350000000001	0	n/a	327622	KeyDown	41324	4	Index	27
546.1333333333333	0	n/a	327681	KeyDown	41324	1	Little	27
546.4100000000001	0	n/a	327847	KeyDown	41324	3	Middle	27
546.7266666666667	0	n/a	328037	KeyDown	41324	2	Ring	27
547.8166666666667	0	n/a	328691	KeyDown	41324	4	Index	27
547.9566666666667	0	n/a	328775	KeyDown	41324	1	Little	27
548.2833333333334	0	n/a	328971	KeyDown	41324	3	Middle	27
548.3950000000000	0	n/a	329038	KeyDown	41324	2	Ring	27
548.5750000000000	0	n/a	329146	KeyDown	41324	4	Index	27
548.7583333333333	0	n/a	329256	KeyDown	41324	4	Index	27
548.7900000000001	0	n/a	329275	StopPractice	41324	n/a	n/a	27
548.7916666666667	0	n/a	329276	StartRest	XXXXX	n/a	n/a	27
558.8333333333334	0	n/a	335301	StopRest	XXXXX	n/a	n/a	27
558.8350000000000	0	UPPT001	335302	StartPractice	41324	n/a	n/a	28
559.3733333333333	0	n/a	335625	KeyDown	41324	4	Index	28
559.5116666666667	0	n/a	335708	KeyDown	41324	1	Little	28
559.6883333333334	0	n/a	335814	KeyDown	41324	2	Ring	28
560.1516666666668	0	n/a	336092	KeyDown	41324	2	Ring	28
560.5516666666667	0	n/a	336332	KeyDown	41324	4	Index	28
560.7133333333334	0	n/a	336429	KeyDown	41324	4	Index	28
560.9366666666667	0	n/a	336563	KeyDown	41324	1	Little	28
561.1633333333334	0	n/a	336699	KeyDown	41324	3	Middle	28
561.2833333333334	0	n/a	336771	KeyDown	41324	2	Ring	28
561.4633333333334	0	n/a	336879	KeyDown	41324	4	Index	28
561.6350000000000	0	n/a	336982	KeyDown	41324	4	Index	28
561.8333333333334	0	n/a	337101	KeyDown	41324	1	Little	28
561.9783333333334	0	n/a	337188	KeyDown	41324	3	Middle	28
562.0933333333334	0	n/a	337257	KeyDown	41324	2	Ring	28
562.2516666666667	0	n/a	337352	KeyDown	41324	4	Index	28
562.6083333333333	0	n/a	337566	KeyDown	41324	4	Index	28
562.8666666666667	0	n/a	337721	KeyDown	41324	1	Little	28
563.0483333333334	0	n/a	337830	KeyDown	41324	3	Middle	28
563.1633333333334	0	n/a	337899	KeyDown	41324	2	Ring	28
563.3450000000000	0	n/a	338008	KeyDown	41324	4	Index	28
563.6016666666667	0	n/a	338162	KeyDown	41324	4	Index	28
563.7716666666666	0	n/a	338264	KeyDown	41324	1	Little	28
564.1216666666667	0	n/a	338474	KeyDown	41324	3	Middle	28
564.2433333333333	0	n/a	338547	KeyDown	41324	2	Ring	28
564.8433333333334	0	n/a	338907	KeyDown	41324	4	Index	28
565.0166666666667	0	n/a	339011	KeyDown	41324	4	Index	28
565.2700000000000	0	n/a	339163	KeyDown	41324	1	Little	28
565.4383333333334	0	n/a	339264	KeyDown	41324	3	Middle	28
565.5533333333334	0	n/a	339333	KeyDown	41324	2	Ring	28
565.6916666666667	0	n/a	339416	KeyDown	41324	4	Index	28
565.8583333333333	0	n/a	339516	KeyDown	41324	4	Index	28
565.9783333333334	0	n/a	339588	KeyDown	41324	1	Little	28
566.1716666666667	0	n/a	339704	KeyDown	41324	3	Middle	28
566.3000000000001	0	n/a	339781	KeyDown	41324	2	Ring	28
566.4550000000000	0	n/a	339874	KeyDown	41324	4	Index	28
566.6183333333333	0	n/a	339972	KeyDown	41324	4	Index	28
566.7616666666667	0	n/a	340058	KeyDown	41324	1	Little	28
567.1366666666667	0	n/a	340283	KeyDown	41324	3	Middle	28
567.2516666666667	0	n/a	340352	KeyDown	41324	2	Ring	28
567.4400000000001	0	n/a	340465	KeyDown	41324	4	Index	28
567.5850000000000	0	n/a	340552	KeyDown	41324	4	Index	28
567.7450000000000	0	n/a	340648	KeyDown	41324	1	Little	28
568.0150000000000	0	n/a	340810	KeyDown	41324	3	Middle	28
568.1383333333333	0	n/a	340884	KeyDown	41324	2	Ring	28
568.2916666666667	0	n/a	340976	KeyDown	41324	4	Index	28
568.4783333333334	0	n/a	341088	KeyDown	41324	4	Index	28
568.6866666666667	0	n/a	341213	KeyDown	41324	1	Little	28
568.8816666666667	0	n/a	341330	StopPractice	41324	n/a	n/a	28
568.8833333333333	0	n/a	341331	StartRest	XXXXX	n/a	n/a	28
578.9066666666668	0	n/a	347345	StopRest	XXXXX	n/a	n/a	28
578.9083333333334	0	UPPT001	347346	StartPractice	41324	n/a	n/a	29
579.3083333333334	0	n/a	347586	KeyDown	41324	4	Index	29
579.4666666666667	0	n/a	347681	KeyDown	41324	1	Little	29
579.6966666666667	0	n/a	347819	KeyDown	41324	3	Middle	29
579.7900000000001	0	n/a	347875	KeyDown	41324	2	Ring	29
579.9366666666667	0	n/a	347963	KeyDown	41324	4	Index	29
580.1216666666667	0	n/a	348074	KeyDown	41324	4	Index	29
580.2516666666667	0	n/a	348152	KeyDown	41324	1	Little	29
580.4466666666667	0	n/a	348269	KeyDown	41324	3	Middle	29
580.5733333333334	0	n/a	348345	KeyDown	41324	2	Ring	29
580.7033333333334	0	n/a	348423	KeyDown	41324	4	Index	29
580.8550000000000	0	n/a	348514	KeyDown	41324	4	Index	29
580.9683333333334	0	n/a	348582	KeyDown	41324	1	Little	29
581.1166666666667	0	n/a	348671	KeyDown	41324	3	Middle	29
581.1966666666667	0	n/a	348719	KeyDown	41324	2	Ring	29
581.3633333333333	0	n/a	348819	KeyDown	41324	4	Index	29
581.5566666666667	0	n/a	348935	KeyDown	41324	4	Index	29
581.6866666666667	0	n/a	349013	KeyDown	41324	1	Little	29
581.8966666666668	0	n/a	349139	KeyDown	41324	3	Middle	29
582.0216666666668	0	n/a	349214	KeyDown	41324	2	Ring	29
582.1833333333334	0	n/a	349311	KeyDown	41324	4	Index	29
582.3233333333334	0	n/a	349395	KeyDown	41324	4	Index	29
582.4350000000001	0	n/a	349462	KeyDown	41324	1	Little	29
582.6050000000000	0	n/a	349564	KeyDown	41324	3	Middle	29
582.7050000000000	0	n/a	349624	KeyDown	41324	2	Ring	29
582.9000000000001	0	n/a	349741	KeyDown	41324	4	Index	29
583.0616666666667	0	n/a	349838	KeyDown	41324	4	Index	29
583.1900000000001	0	n/a	349915	KeyDown	41324	1	Little	29
583.3450000000000	0	n/a	350008	KeyDown	41324	3	Middle	29
583.5016666666667	0	n/a	350102	KeyDown	41324	2	Ring	29
583.7166666666667	0	n/a	350231	KeyDown	41324	4	Index	29
583.8816666666667	0	n/a	350330	KeyDown	41324	4	Index	29
584.0033333333333	0	n/a	350403	KeyDown	41324	1	Little	29
584.1550000000001	0	n/a	350494	KeyDown	41324	3	Middle	29
584.2950000000001	0	n/a	350578	KeyDown	41324	2	Ring	29
584.4483333333334	0	n/a	350670	KeyDown	41324	4	Index	29
584.7016666666667	0	n/a	350822	KeyDown	41324	4	Index	29
584.9000000000001	0	n/a	350941	KeyDown	41324	1	Little	29
585.0216666666668	0	n/a	351014	KeyDown	41324	3	Middle	29
585.1650000000001	0	n/a	351100	KeyDown	41324	2	Ring	29
585.2966666666667	0	n/a	351179	KeyDown	41324	4	Index	29
585.4566666666667	0	n/a	351275	KeyDown	41324	4	Index	29
585.6016666666667	0	n/a	351362	KeyDown	41324	1	Little	29
585.7933333333334	0	n/a	351477	KeyDown	41324	2	Ring	29
585.8416666666667	0	n/a	351506	KeyDown	41324	3	Middle	29
586.5133333333333	0	n/a	351909	KeyDown	41324	4	Index	29
586.6616666666667	0	n/a	351998	KeyDown	41324	4	Index	29
586.8116666666667	0	n/a	352088	KeyDown	41324	1	Little	29
587.0050000000000	0	n/a	352204	KeyDown	41324	3	Middle	29
587.1833333333334	0	n/a	352311	KeyDown	41324	2	Ring	29
587.7616666666667	0	n/a	352658	KeyDown	41324	4	Index	29
587.9300000000001	0	n/a	352759	KeyDown	41324	4	Index	29
588.2283333333334	0	n/a	352938	KeyDown	41324	1	Little	29
588.3683333333333	0	n/a	353022	KeyDown	41324	3	Middle	29
588.5166666666667	0	n/a	353111	KeyDown	41324	2	Ring	29
588.8366666666667	0	n/a	353303	KeyDown	41324	4	Index	29
588.9550000000000	0	n/a	353374	StopPractice	41324	n/a	n/a	29
588.9566666666667	0	n/a	353375	StartRest	XXXXX	n/a	n/a	29
598.9983333333333	0	n/a	359400	StopRest	XXXXX	n/a	n/a	29
599.0000000000000	0	UPPT001	359401	StartPractice	41324	n/a	n/a	30
599.4000000000001	0	n/a	359641	KeyDown	41324	4	Index	30
599.5500000000001	0	n/a	359731	KeyDown	41324	1	Little	30
599.7483333333333	0	n/a	359850	KeyDown	41324	3	Middle	30
599.8683333333333	0	n/a	359922	KeyDown	41324	2	Ring	30
599.9966666666667	0	n/a	359999	KeyDown	41324	4	Index	30
600.1933333333334	0	n/a	360117	KeyDown	41324	4	Index	30
600.3666666666667	0	n/a	360221	KeyDown	41324	1	Little	30
600.5516666666667	0	n/a	360332	KeyDown	41324	3	Middle	30
600.6983333333334	0	n/a	360420	KeyDown	41324	2	Ring	30
600.8366666666667	0	n/a	360503	KeyDown	41324	4	Index	30
601.0133333333333	0	n/a	360609	KeyDown	41324	4	Index	30
601.1500000000001	0	n/a	360691	KeyDown	41324	1	Little	30
601.2866666666667	0	n/a	360773	KeyDown	41324	3	Middle	30
601.3716666666667	0	n/a	360824	KeyDown	41324	2	Ring	30
601.5183333333333	0	n/a	360912	KeyDown	41324	4	Index	30
601.7100000000000	0	n/a	361027	KeyDown	41324	4	Index	30
601.8566666666667	0	n/a	361115	KeyDown	41324	1	Little	30
601.9966666666667	0	n/a	361199	KeyDown	41324	3	Middle	30
602.1133333333333	0	n/a	361269	KeyDown	41324	2	Ring	30
602.2633333333333	0	n/a	361359	KeyDown	41324	4	Index	30
602.4316666666667	0	n/a	361460	KeyDown	41324	4	Index	30
602.6116666666667	0	n/a	361568	KeyDown	41324	1	Little	30
602.7233333333334	0	n/a	361635	KeyDown	41324	3	Middle	30
602.7916666666667	0	n/a	361676	KeyDown	41324	2	Ring	30
603.0250000000001	0	n/a	361816	KeyDown	41324	4	Index	30
603.2016666666667	0	n/a	361922	KeyDown	41324	4	Index	30
603.3633333333333	0	n/a	362019	KeyDown	41324	1	Little	30
603.5250000000001	0	n/a	362116	KeyDown	41324	3	Middle	30
603.6183333333333	0	n/a	362172	KeyDown	41324	2	Ring	30
603.8066666666667	0	n/a	362285	KeyDown	41324	4	Index	30
603.9783333333334	0	n/a	362388	KeyDown	41324	4	Index	30
604.1200000000000	0	n/a	362473	KeyDown	41324	1	Little	30
604.3950000000001	0	n/a	362638	KeyDown	41324	3	Middle	30
604.5183333333333	0	n/a	362712	KeyDown	41324	2	Ring	30
604.7366666666667	0	n/a	362843	KeyDown	41324	4	Index	30
604.9083333333334	0	n/a	362946	KeyDown	41324	4	Index	30
605.0816666666667	0	n/a	363050	KeyDown	41324	1	Little	30
605.2266666666667	0	n/a	363137	KeyDown	41324	3	Middle	30
605.3250000000000	0	n/a	363196	KeyDown	41324	2	Ring	30
605.4983333333333	0	n/a	363300	KeyDown	41324	4	Index	30
605.6733333333334	0	n/a	363405	KeyDown	41324	4	Index	30
605.8316666666667	0	n/a	363500	KeyDown	41324	1	Little	30
605.9783333333334	0	n/a	363588	KeyDown	41324	3	Middle	30
606.0983333333334	0	n/a	363660	KeyDown	41324	2	Ring	30
606.3833333333333	0	n/a	363831	KeyDown	41324	4	Index	30
606.5483333333334	0	n/a	363930	KeyDown	41324	4	Index	30
606.7716666666668	0	n/a	364064	KeyDown	41324	1	Little	30
607.1266666666667	0	n/a	364277	KeyDown	41324	3	Middle	30
607.2133333333334	0	n/a	364329	KeyDown	41324	2	Ring	30
607.3650000000000	0	n/a	364420	KeyDown	41324	4	Index	30
607.8216666666667	0	n/a	364694	KeyDown	41324	4	Index	30
608.0533333333334	0	n/a	364833	KeyDown	41324	1	Little	30
608.1966666666667	0	n/a	364919	KeyDown	41324	3	Middle	30
608.2950000000001	0	n/a	364978	KeyDown	41324	2	Ring	30
608.4583333333334	0	n/a	365076	KeyDown	41324	4	Index	30
608.6316666666667	0	n/a	365180	KeyDown	41324	4	Index	30
608.7783333333334	0	n/a	365268	KeyDown	41324	1	Little	30
608.9000000000001	0	n/a	365341	KeyDown	41324	3	Middle	30
609.0000000000000	0	n/a	365401	KeyDown	41324	2	Ring	30
609.0466666666667	0	n/a	365429	StopPractice	41324	n/a	n/a	30
609.0483333333334	0	n/a	365430	StartRest	XXXXX	n/a	n/a	30
619.0900000000000	0	n/a	371455	StopRest	XXXXX	n/a	n/a	30
619.0916666666667	0	UPPT001	371456	StartPractice	41324	n/a	n/a	31
619.4666666666667	0	n/a	371681	KeyDown	41324	4	Index	31
619.6050000000000	0	n/a	371764	KeyDown	41324	1	Little	31
619.8100000000001	0	n/a	371887	KeyDown	41324	3	Middle	31
619.9450000000001	0	n/a	371968	KeyDown	41324	2	Ring	31
620.1633333333334	0	n/a	372099	KeyDown	41324	4	Index	31
620.3233333333334	0	n/a	372195	KeyDown	41324	4	Index	31
620.4233333333334	0	n/a	372255	KeyDown	41324	1	Little	31
620.5900000000000	0	n/a	372355	KeyDown	41324	3	Middle	31
620.7000000000000	0	n/a	372421	KeyDown	41324	2	Ring	31
620.9000000000001	0	n/a	372541	KeyDown	41324	4	Index	31
621.0150000000000	0	n/a	372610	KeyDown	41324	4	Index	31
621.1250000000000	0	n/a	372676	KeyDown	41324	1	Little	31
621.2483333333333	0	n/a	372750	KeyDown	41324	3	Middle	31
621.3266666666667	0	n/a	372797	KeyDown	41324	2	Ring	31
621.5150000000000	0	n/a	372910	KeyDown	41324	4	Index	31
621.6866666666667	0	n/a	373013	KeyDown	41324	4	Index	31
621.8400000000000	0	n/a	373105	KeyDown	41324	1	Little	31
622.0433333333334	0	n/a	373227	KeyDown	41324	3	Middle	31
622.2200000000000	0	n/a	373333	KeyDown	41324	2	Ring	31
622.8683333333333	0	n/a	373722	KeyDown	41324	4	Index	31
623.0383333333334	0	n/a	373824	KeyDown	41324	4	Index	31
623.1633333333334	0	n/a	373899	KeyDown	41324	1	Little	31
623.3683333333333	0	n/a	374022	KeyDown	41324	3	Middle	31
623.5150000000000	0	n/a	374110	KeyDown	41324	2	Ring	31
623.8166666666667	0	n/a	374291	KeyDown	41324	4	Index	31
623.9750000000000	0	n/a	374386	KeyDown	41324	4	Index	31
624.1066666666667	0	n/a	374465	KeyDown	41324	1	Little	31
624.2866666666667	0	n/a	374573	KeyDown	41324	3	Middle	31
624.4250000000001	0	n/a	374656	KeyDown	41324	2	Ring	31
624.6233333333333	0	n/a	374775	KeyDown	41324	4	Index	31
624.7850000000001	0	n/a	374872	KeyDown	41324	4	Index	31
624.9150000000001	0	n/a	374950	KeyDown	41324	1	Little	31
625.0550000000001	0	n/a	375034	KeyDown	41324	2	Ring	31
625.2050000000000	0	n/a	375124	KeyDown	41324	3	Middle	31
625.9566666666667	0	n/a	375575	KeyDown	41324	4	Index	31
626.1083333333333	0	n/a	375666	KeyDown	41324	4	Index	31
626.2283333333334	0	n/a	375738	KeyDown	41324	1	Little	31
626.4100000000001	0	n/a	375847	KeyDown	41324	3	Middle	31
626.5500000000001	0	n/a	375931	KeyDown	41324	2	Ring	31
627.6116666666667	0	n/a	376568	KeyDown	41324	4	Index	31
627.7833333333334	0	n/a	376671	KeyDown	41324	4	Index	31
627.8900000000000	0	n/a	376735	KeyDown	41324	1	Little	31
628.0983333333334	0	n/a	376860	KeyDown	41324	3	Middle	31
628.2533333333333	0	n/a	376953	KeyDown	41324	2	Ring	31
628.5350000000001	0	n/a	377122	KeyDown	41324	4	Index	31
628.6916666666667	0	n/a	377216	KeyDown	41324	4	Index	31
628.8116666666667	0	n/a	377288	KeyDown	41324	1	Little	31
629.1383333333333	0	n/a	377484	StopPractice	41324	n/a	n/a	31
629.1400000000000	0	n/a	377485	StartRest	XXXXX	n/a	n/a	31
639.1633333333334	0	n/a	383499	StopRest	XXXXX	n/a	n/a	31
639.1650000000001	0	UPPT001	383500	StartPractice	41324	n/a	n/a	32
639.8200000000001	0	n/a	383893	KeyDown	41324	4	Index	32
640.0133333333333	0	n/a	384009	KeyDown	41324	1	Little	32
640.1616666666667	0	n/a	384098	KeyDown	41324	3	Middle	32
640.2616666666667	0	n/a	384158	KeyDown	41324	2	Ring	32
640.4516666666667	0	n/a	384272	KeyDown	41324	4	Index	32
640.6000000000000	0	n/a	384361	KeyDown	41324	4	Index	32
640.7983333333334	0	n/a	384480	KeyDown	41324	1	Little	32
640.9416666666667	0	n/a	384566	KeyDown	41324	3	Middle	32
641.0416666666667	0	n/a	384626	KeyDown	41324	2	Ring	32
641.2450000000000	0	n/a	384748	KeyDown	41324	4	Index	32
641.3933333333334	0	n/a	384837	KeyDown	41324	4	Index	32
641.6133333333333	0	n/a	384969	KeyDown	41324	1	Little	32
641.7566666666667	0	n/a	385055	KeyDown	41324	3	Middle	32
641.8783333333333	0	n/a	385128	KeyDown	41324	2	Ring	32
642.0200000000001	0	n/a	385213	KeyDown	41324	4	Index	32
642.1883333333334	0	n/a	385314	KeyDown	41324	4	Index	32
642.3633333333333	0	n/a	385419	KeyDown	41324	1	Little	32
642.5433333333334	0	n/a	385527	KeyDown	41324	3	Middle	32
642.6683333333334	0	n/a	385602	KeyDown	41324	2	Ring	32
642.8233333333334	0	n/a	385695	KeyDown	41324	4	Index	32
642.9783333333334	0	n/a	385788	KeyDown	41324	4	Index	32
643.1466666666668	0	n/a	385889	KeyDown	41324	1	Little	32
643.3450000000000	0	n/a	386008	KeyDown	41324	3	Middle	32
643.5083333333333	0	n/a	386106	KeyDown	41324	2	Ring	32
643.6883333333334	0	n/a	386214	KeyDown	41324	4	Index	32
643.8216666666667	0	n/a	386294	KeyDown	41324	4	Index	32
643.9916666666667	0	n/a	386396	KeyDown	41324	1	Little	32
644.1916666666667	0	n/a	386516	KeyDown	41324	3	Middle	32
644.3300000000000	0	n/a	386599	KeyDown	41324	2	Ring	32
644.4750000000000	0	n/a	386686	KeyDown	41324	4	Index	32
644.6400000000000	0	n/a	386785	KeyDown	41324	4	Index	32
644.7983333333334	0	n/a	386880	KeyDown	41324	1	Little	32
645.0216666666668	0	n/a	387014	KeyDown	41324	3	Middle	32
645.2783333333334	0	n/a	387168	KeyDown	41324	2	Ring	32
645.6033333333334	0	n/a	387363	KeyDown	41324	4	Index	32
645.9900000000000	0	n/a	387595	KeyDown	41324	4	Index	32
646.1366666666667	0	n/a	387683	KeyDown	41324	1	Little	32
646.3600000000000	0	n/a	387817	KeyDown	41324	4	Index	32
647.1633333333334	0	n/a	388299	KeyDown	41324	2	Ring	32
647.4983333333333	0	n/a	388500	KeyDown	41324	4	Index	32
647.6333333333333	0	n/a	388581	KeyDown	41324	4	Index	32
647.8900000000000	0	n/a	388735	KeyDown	41324	1	Little	32
648.0516666666667	0	n/a	388832	KeyDown	41324	3	Middle	32
648.1766666666667	0	n/a	388907	KeyDown	41324	2	Ring	32
648.3766666666667	0	n/a	389027	KeyDown	41324	4	Index	32
648.5316666666668	0	n/a	389120	KeyDown	41324	4	Index	32
648.6933333333334	0	n/a	389217	KeyDown	41324	1	Little	32
648.8766666666667	0	n/a	389327	KeyDown	41324	3	Middle	32
649.0083333333333	0	n/a	389406	KeyDown	41324	2	Ring	32
649.2116666666667	0	n/a	389528	StopPractice	41324	n/a	n/a	32
649.2133333333334	0	n/a	389529	StartRest	XXXXX	n/a	n/a	32
659.2550000000000	0	n/a	395554	StopRest	XXXXX	n/a	n/a	32
659.2566666666667	0	UPPT001	395555	StartPractice	41324	n/a	n/a	33
659.7350000000000	0	n/a	395842	KeyDown	41324	4	Index	33
659.8883333333333	0	n/a	395934	KeyDown	41324	1	Little	33
660.0650000000001	0	n/a	396040	KeyDown	41324	3	Middle	33
660.1716666666667	0	n/a	396104	KeyDown	41324	2	Ring	33
660.3233333333334	0	n/a	396195	KeyDown	41324	4	Index	33
660.5216666666668	0	n/a	396314	KeyDown	41324	4	Index	33
660.6566666666668	0	n/a	396395	KeyDown	41324	1	Little	33
660.8050000000001	0	n/a	396484	KeyDown	41324	3	Middle	33
660.9266666666667	0	n/a	396557	KeyDown	41324	2	Ring	33
661.0533333333334	0	n/a	396633	KeyDown	41324	4	Index	33
661.2416666666667	0	n/a	396746	KeyDown	41324	4	Index	33
661.4066666666668	0	n/a	396845	KeyDown	41324	1	Little	33
661.6100000000000	0	n/a	396967	KeyDown	41324	3	Middle	33
661.7350000000000	0	n/a	397042	KeyDown	41324	2	Ring	33
661.8683333333333	0	n/a	397122	KeyDown	41324	4	Index	33
662.0433333333334	0	n/a	397227	KeyDown	41324	4	Index	33
662.1750000000001	0	n/a	397306	KeyDown	41324	1	Little	33
662.3450000000000	0	n/a	397408	KeyDown	41324	3	Middle	33
662.4050000000001	0	n/a	397444	KeyDown	41324	2	Ring	33
662.5816666666667	0	n/a	397550	KeyDown	41324	4	Index	33
662.7600000000000	0	n/a	397657	KeyDown	41324	4	Index	33
662.9283333333334	0	n/a	397758	KeyDown	41324	1	Little	33
663.0883333333334	0	n/a	397854	KeyDown	41324	3	Middle	33
663.1650000000001	0	n/a	397900	KeyDown	41324	2	Ring	33
663.3700000000000	0	n/a	398023	KeyDown	41324	4	Index	33
663.5450000000001	0	n/a	398128	KeyDown	41324	4	Index	33
663.6950000000001	0	n/a	398218	KeyDown	41324	1	Little	33
664.0300000000001	0	n/a	398419	KeyDown	41324	3	Middle	33
664.1283333333333	0	n/a	398478	KeyDown	41324	2	Ring	33
664.3266666666667	0	n/a	398597	KeyDown	41324	4	Index	33
664.5200000000001	0	n/a	398713	KeyDown	41324	4	Index	33
664.7533333333333	0	n/a	398853	KeyDown	41324	1	Little	33
665.0050000000000	0	n/a	399004	KeyDown	41324	3	Middle	33
665.1300000000000	0	n/a	399079	KeyDown	41324	2	Ring	33
665.4250000000001	0	n/a	399256	KeyDown	41324	4	Index	33
665.5833333333334	0	n/a	399351	KeyDown	41324	4	Index	33
665.7583333333333	0	n/a	399456	KeyDown	41324	1	Little	33
665.9700000000000	0	n/a	399583	KeyDown	41324	3	Middle	33
666.0816666666667	0	n/a	399650	KeyDown	41324	2	Ring	33
666.2333333333333	0	n/a	399741	KeyDown	41324	4	Index	33
666.4016666666668	0	n/a	399842	KeyDown	41324	4	Index	33
666.5450000000001	0	n/a	399928	KeyDown	41324	1	Little	33
666.7233333333334	0	n/a	400035	KeyDown	41324	3	Middle	33
666.8416666666667	0	n/a	400106	KeyDown	41324	2	Ring	33
666.9633333333334	0	n/a	400179	KeyDown	41324	4	Index	33
667.1833333333334	0	n/a	400311	KeyDown	41324	4	Index	33
667.4300000000001	0	n/a	400459	KeyDown	41324	1	Little	33
667.6766666666667	0	n/a	400607	KeyDown	41324	3	Middle	33
667.7983333333334	0	n/a	400680	KeyDown	41324	2	Ring	33
668.0733333333334	0	n/a	400845	KeyDown	41324	4	Index	33
668.2433333333333	0	n/a	400947	KeyDown	41324	4	Index	33
668.4116666666667	0	n/a	401048	KeyDown	41324	1	Little	33
668.6000000000000	0	n/a	401161	KeyDown	41324	3	Middle	33
668.7866666666667	0	n/a	401273	KeyDown	41324	2	Ring	33
669.0933333333334	0	n/a	401457	KeyDown	41324	4	Index	33
669.2583333333333	0	n/a	401556	KeyDown	41324	4	Index	33
669.3033333333334	0	n/a	401583	StopPractice	41324	n/a	n/a	33
669.3050000000001	0	n/a	401584	StartRest	XXXXX	n/a	n/a	33
679.3466666666667	0	n/a	407609	StopRest	XXXXX	n/a	n/a	33
679.3483333333334	0	UPPT001	407610	StartPractice	41324	n/a	n/a	34
679.8266666666667	0	n/a	407897	KeyDown	41324	4	Index	34
679.9600000000000	0	n/a	407977	KeyDown	41324	1	Little	34
680.1233333333333	0	n/a	408075	KeyDown	41324	3	Middle	34
