onset	duration	channel	onset_sample_idx	event_type	target_sequence	keypress_id	finger_label	trial_number
16.6266666666667	0	UPPT001	9977	StartPractice	41324	n/a	n/a	1
17.8616666666667	0	n/a	10718	KeyDown	41324	4	Index	1
18.5200000000000	0	n/a	11113	KeyDown	41324	1	Little	1
20.6566666666667	0	n/a	12395	KeyDown	41324	3	Middle	1
22.2183333333333	0	n/a	13332	KeyDown	41324	4	Index	1
23.2583333333333	0	n/a	13956	KeyDown	41324	4	Index	1
23.7783333333333	0	n/a	14268	KeyDown	41324	1	Little	1
25.2733333333333	0	n/a	15165	KeyDown	41324	3	Middle	1
26.6650000000000	0	n/a	16000	StopPractice	41324	n/a	n/a	1
26.6666666666667	0	n/a	16001	StartRest	XXXXX	n/a	n/a	1
36.6900000000000	0	n/a	22015	StopRest	XXXXX	n/a	n/a	1
36.6916666666667	0	UPPT001	22016	StartPractice	41324	n/a	n/a	2
38.3133333333333	0	n/a	22989	KeyDown	41324	4	Index	2
38.9150000000000	0	n/a	23350	KeyDown	41324	1	Little	2
40.5250000000000	0	n/a	24316	KeyDown	41324	3	Middle	2
41.1433333333333	0	n/a	24687	KeyDown	41324	2	Ring	2
41.8750000000000	0	n/a	25126	KeyDown	41324	4	Index	2
42.7883333333333	0	n/a	25674	KeyDown	41324	4	Index	2
43.4183333333333	0	n/a	26052	KeyDown	41324	1	Little	2
44.3150000000000	0	n/a	26590	KeyDown	41324	3	Middle	2
44.7650000000000	0	n/a	26860	KeyDown	41324	2	Ring	2
45.2983333333333	0	n/a	27180	KeyDown	41324	4	Index	2
45.9800000000000	0	n/a	27589	KeyDown	41324	4	Index	2
46.7300000000000	0	n/a	28039	StopPractice	41324	n/a	n/a	2
46.7316666666667	0	n/a	28040	StartRest	XXXXX	n/a	n/a	2
56.7650000000000	0	n/a	34060	StopRest	XXXXX	n/a	n/a	2
56.7666666666667	0	UPPT001	34061	StartPractice	41324	n/a	n/a	3
57.7250000000000	0	n/a	34636	KeyDown	41324	4	Index	3
58.1883333333333	0	n/a	34914	KeyDown	41324	1	Little	3
60.5950000000000	0	n/a	36358	KeyDown	41324	3	Middle	3
60.7350000000000	0	n/a	36442	KeyDown	41324	2	Ring	3
60.9566666666667	0	n/a	36575	KeyDown	41324	4	Index	3
61.3750000000000	0	n/a	36826	KeyDown	41324	4	Index	3
61.9933333333333	0	n/a	37197	KeyDown	41324	1	Little	3
62.5350000000000	0	n/a	37522	KeyDown	41324	3	Middle	3
62.9183333333333	0	n/a	37752	KeyDown	41324	2	Ring	3
63.3650000000000	0	n/a	38020	KeyDown	41324	4	Index	3
64.0066666666667	0	n/a	38405	KeyDown	41324	4	Index	3
64.8300000000000	0	n/a	38899	KeyDown	41324	1	Little	3
66.2183333333333	0	n/a	39732	KeyDown	41324	3	Middle	3
66.8050000000000	0	n/a	40084	StopPractice	41324	n/a	n/a	3
66.8066666666667	0	n/a	40085	StartRest	XXXXX	n/a	n/a	3
76.8383333333333	0	n/a	46104	StopRest	XXXXX	n/a	n/a	3
76.8400000000000	0	UPPT001	46105	StartPractice	41324	n/a	n/a	4
78.0816666666667	0	n/a	46850	KeyDown	41324	4	Index	4
78.8083333333333	0	n/a	47286	KeyDown	41324	1	Little	4
79.3400000000000	0	n/a	47605	KeyDown	41324	3	Middle	4
79.7316666666667	0	n/a	47840	KeyDown	41324	2	Ring	4
80.1916666666667	0	n/a	48116	KeyDown	41324	4	Index	4
80.7616666666667	0	n/a	48458	KeyDown	41324	4	Index	4
81.2966666666667	0	n/a	48779	KeyDown	41324	1	Little	4
81.9250000000000	0	n/a	49156	KeyDown	41324	3	Middle	4
82.2766666666667	0	n/a	49367	KeyDown	41324	2	Ring	4
82.6916666666667	0	n/a	49616	KeyDown	41324	4	Index	4
83.2800000000000	0	n/a	49969	KeyDown	41324	4	Index	4
83.8816666666667	0	n/a	50330	KeyDown	41324	1	Little	4
84.7183333333333	0	n/a	50832	KeyDown	41324	3	Middle	4
84.9983333333333	0	n/a	51000	KeyDown	41324	2	Ring	4
85.3416666666667	0	n/a	51206	KeyDown	41324	4	Index	4
85.9116666666667	0	n/a	51548	KeyDown	41324	4	Index	4
86.3266666666667	0	n/a	51797	KeyDown	41324	1	Little	4
86.8783333333333	0	n/a	52128	StopPractice	41324	n/a	n/a	4
86.8800000000000	0	n/a	52129	StartRest	XXXXX	n/a	n/a	4
96.9150000000000	0	n/a	58150	StopRest	XXXXX	n/a	n/a	4
96.9166666666667	0	UPPT001	58151	StartPractice	41324	n/a	n/a	5
97.9300000000000	0	n/a	58759	KeyDown	41324	4	Index	5
98.3683333333333	0	n/a	59022	KeyDown	41324	1	Little	5
98.9333333333333	0	n/a	59361	KeyDown	41324	3	Middle	5
99.1750000000000	0	n/a	59506	KeyDown	41324	2	Ring	5
99.4683333333333	0	n/a	59682	KeyDown	41324	4	Index	5
99.8750000000000	0	n/a	59926	KeyDown	41324	4	Index	5
100.2683333333333	0	n/a	60162	KeyDown	41324	1	Little	5
100.7500000000000	0	n/a	60451	KeyDown	41324	3	Middle	5
100.9966666666667	0	n/a	60599	KeyDown	41324	2	Ring	5
101.2883333333333	0	n/a	60774	KeyDown	41324	4	Index	5
101.8116666666667	0	n/a	61088	KeyDown	41324	4	Index	5
102.2833333333333	0	n/a	61371	KeyDown	41324	1	Little	5
102.7533333333333	0	n/a	61653	KeyDown	41324	3	Middle	5
103.0150000000000	0	n/a	61810	KeyDown	41324	2	Ring	5
103.3250000000000	0	n/a	61996	KeyDown	41324	4	Index	5
103.9150000000000	0	n/a	62350	KeyDown	41324	4	Index	5
104.7150000000000	0	n/a	62830	KeyDown	41324	1	Little	5
105.1583333333333	0	n/a	63096	KeyDown	41324	3	Middle	5
105.6350000000000	0	n/a	63382	KeyDown	41324	2	Ring	5
106.1883333333333	0	n/a	63714	KeyDown	41324	4	Index	5
106.9233333333333	0	n/a	64155	KeyDown	41324	4	Index	5
106.9550000000000	0	n/a	64174	StopPractice	41324	n/a	n/a	5
106.9566666666667	0	n/a	64175	StartRest	XXXXX	n/a	n/a	5
116.9883333333333	0	n/a	70194	StopRest	XXXXX	n/a	n/a	5
116.9900000000000	0	UPPT001	70195	StartPractice	41324	n/a	n/a	6
117.9450000000000	0	n/a	70768	KeyDown	41324	4	Index	6
118.3300000000000	0	n/a	70999	KeyDown	41324	1	Little	6
119.1483333333333	0	n/a	71490	KeyDown	41324	3	Middle	6
119.4166666666667	0	n/a	71651	KeyDown	41324	2	Ring	6
119.7400000000000	0	n/a	71845	KeyDown	41324	4	Index	6
120.1033333333333	0	n/a	72063	KeyDown	41324	4	Index	6
120.4466666666667	0	n/a	72269	KeyDown	41324	1	Little	6
120.8983333333333	0	n/a	72540	KeyDown	41324	3	Middle	6
121.1750000000000	0	n/a	72706	KeyDown	41324	2	Ring	6
121.4983333333333	0	n/a	72900	KeyDown	41324	4	Index	6
121.8933333333333	0	n/a	73137	KeyDown	41324	4	Index	6
122.3866666666667	0	n/a	73433	KeyDown	41324	1	Little	6
122.8116666666667	0	n/a	73688	KeyDown	41324	3	Middle	6
123.0716666666667	0	n/a	73844	KeyDown	41324	2	Ring	6
123.3783333333333	0	n/a	74028	KeyDown	41324	4	Index	6
123.7683333333333	0	n/a	74262	KeyDown	41324	4	Index	6
124.1616666666667	0	n/a	74498	KeyDown	41324	1	Little	6
124.6983333333333	0	n/a	74820	KeyDown	41324	3	Middle	6
124.9383333333333	0	n/a	74964	KeyDown	41324	2	Ring	6
125.2233333333333	0	n/a	75135	KeyDown	41324	4	Index	6
125.5766666666667	0	n/a	75347	KeyDown	41324	4	Index	6
125.9466666666667	0	n/a	75569	KeyDown	41324	1	Little	6
126.3716666666667	0	n/a	75824	KeyDown	41324	3	Middle	6
127.0283333333333	0	n/a	76218	StopPractice	41324	n/a	n/a	6
127.0300000000000	0	n/a	76219	StartRest	XXXXX	n/a	n/a	6
137.0633333333333	0	n/a	82239	StopRest	XXXXX	n/a	n/a	6
137.0650000000000	0	UPPT001	82240	StartPractice	41324	n/a	n/a	7
137.9666666666667	0	n/a	82781	KeyDown	41324	4	Index	7
138.3633333333333	0	n/a	83019	KeyDown	41324	1	Little	7
138.6866666666667	0	n/a	83213	KeyDown	41324	3	Middle	7
138.9350000000000	0	n/a	83362	KeyDown	41324	2	Ring	7
139.2266666666667	0	n/a	83537	KeyDown	41324	4	Index	7
139.6766666666667	0	n/a	83807	KeyDown	41324	4	Index	7
139.9800000000000	0	n/a	83989	KeyDown	41324	1	Little	7
140.3483333333333	0	n/a	84210	KeyDown	41324	3	Middle	7
140.6166666666667	0	n/a	84371	KeyDown	41324	2	Ring	7
140.9266666666667	0	n/a	84557	KeyDown	41324	4	Index	7
141.3333333333333	0	n/a	84801	KeyDown	41324	4	Index	7
141.6933333333334	0	n/a	85017	KeyDown	41324	1	Little	7
142.0716666666667	0	n/a	85244	KeyDown	41324	3	Middle	7
142.3233333333334	0	n/a	85395	KeyDown	41324	2	Ring	7
142.6183333333333	0	n/a	85572	KeyDown	41324	4	Index	7
143.0150000000000	0	n/a	85810	KeyDown	41324	4	Index	7
143.3100000000000	0	n/a	85987	KeyDown	41324	1	Little	7
143.6666666666667	0	n/a	86201	KeyDown	41324	3	Middle	7
143.9333333333333	0	n/a	86361	KeyDown	41324	2	Ring	7
144.2416666666667	0	n/a	86546	KeyDown	41324	4	Index	7
144.6766666666667	0	n/a	86807	KeyDown	41324	4	Index	7
144.9916666666667	0	n/a	86996	KeyDown	41324	1	Little	7
145.3633333333333	0	n/a	87219	KeyDown	41324	3	Middle	7
145.7350000000000	0	n/a	87442	KeyDown	41324	2	Ring	7
146.1600000000000	0	n/a	87697	KeyDown	41324	4	Index	7
146.5666666666667	0	n/a	87941	KeyDown	41324	4	Index	7
146.9433333333334	0	n/a	88167	KeyDown	41324	1	Little	7
147.1033333333334	0	n/a	88263	StopPractice	41324	n/a	n/a	7
147.1050000000000	0	n/a	88264	StartRest	XXXXX	n/a	n/a	7
157.1400000000000	0	n/a	94285	StopRest	XXXXX	n/a	n/a	7
157.1416666666667	0	UPPT001	94286	StartPractice	41324	n/a	n/a	8
157.8350000000000	0	n/a	94702	KeyDown	41324	4	Index	8
158.1283333333333	0	n/a	94878	KeyDown	41324	1	Little	8
158.4350000000000	0	n/a	95062	KeyDown	41324	3	Middle	8
158.7266666666667	0	n/a	95237	KeyDown	41324	2	Ring	8
159.0600000000000	0	n/a	95437	KeyDown	41324	4	Index	8
159.5033333333333	0	n/a	95703	KeyDown	41324	4	Index	8
159.8150000000000	0	n/a	95890	KeyDown	41324	1	Little	8
160.2066666666667	0	n/a	96125	KeyDown	41324	3	Middle	8
160.6216666666667	0	n/a	96374	KeyDown	41324	2	Ring	8
161.0933333333333	0	n/a	96657	KeyDown	41324	4	Index	8
161.8600000000000	0	n/a	97117	KeyDown	41324	4	Index	8
162.2233333333334	0	n/a	97335	KeyDown	41324	1	Little	8
162.5783333333333	0	n/a	97548	KeyDown	41324	3	Middle	8
162.8900000000000	0	n/a	97735	KeyDown	41324	2	Ring	8
163.2483333333333	0	n/a	97950	KeyDown	41324	4	Index	8
163.6200000000000	0	n/a	98173	KeyDown	41324	4	Index	8
163.9750000000000	0	n/a	98386	KeyDown	41324	1	Little	8
164.3350000000000	0	n/a	98602	KeyDown	41324	3	Middle	8
164.6300000000000	0	n/a	98779	KeyDown	41324	2	Ring	8
164.9733333333334	0	n/a	98985	KeyDown	41324	4	Index	8
165.6033333333334	0	n/a	99363	KeyDown	41324	4	Index	8
165.9450000000000	0	n/a	99568	KeyDown	41324	1	Little	8
166.2616666666667	0	n/a	99758	KeyDown	41324	3	Middle	8
166.6333333333334	0	n/a	99981	KeyDown	41324	2	Ring	8
167.0566666666667	0	n/a	100235	KeyDown	41324	4	Index	8
167.1800000000000	0	n/a	100309	StopPractice	41324	n/a	n/a	8
167.1816666666667	0	n/a	100310	StartRest	XXXXX	n/a	n/a	8
177.2133333333333	0	n/a	106329	StopRest	XXXXX	n/a	n/a	8
177.2150000000000	0	UPPT001	106330	StartPractice	41324	n/a	n/a	9
177.8983333333333	0	n/a	106740	KeyDown	41324	4	Index	9
178.2566666666667	0	n/a	106955	KeyDown	41324	1	Little	9
178.6683333333334	0	n/a	107202	KeyDown	41324	3	Middle	9
178.9116666666667	0	n/a	107348	KeyDown	41324	2	Ring	9
179.1950000000000	0	n/a	107518	KeyDown	41324	4	Index	9
179.5316666666667	0	n/a	107720	KeyDown	41324	4	Index	9
179.8366666666667	0	n/a	107903	KeyDown	41324	1	Little	9
180.1666666666667	0	n/a	108101	KeyDown	41324	3	Middle	9
180.4366666666667	0	n/a	108263	KeyDown	41324	2	Ring	9
180.7483333333333	0	n/a	108450	KeyDown	41324	4	Index	9
181.1316666666667	0	n/a	108680	KeyDown	41324	4	Index	9
181.4866666666667	0	n/a	108893	KeyDown	41324	1	Little	9
181.8533333333334	0	n/a	109113	KeyDown	41324	3	Middle	9
182.1716666666667	0	n/a	109304	KeyDown	41324	2	Ring	9
182.5400000000000	0	n/a	109525	KeyDown	41324	4	Index	9
182.9000000000000	0	n/a	109741	KeyDown	41324	4	Index	9
183.2850000000000	0	n/a	109972	KeyDown	41324	1	Little	9
183.7566666666667	0	n/a	110255	KeyDown	41324	3	Middle	9
184.1566666666667	0	n/a	110495	KeyDown	41324	2	Ring	9
184.6183333333333	0	n/a	110772	KeyDown	41324	4	Index	9
185.1683333333334	0	n/a	111102	KeyDown	41324	4	Index	9
185.7516666666667	0	n/a	111452	KeyDown	41324	1	Little	9
186.3083333333333	0	n/a	111786	KeyDown	41324	3	Middle	9
186.5433333333334	0	n/a	111927	KeyDown	41324	2	Ring	9
186.8283333333333	0	n/a	112098	KeyDown	41324	4	Index	9
187.2533333333334	0	n/a	112353	StopPractice	41324	n/a	n/a	9
187.2550000000000	0	n/a	112354	StartRest	XXXXX	n/a	n/a	9
197.2883333333334	0	n/a	118374	StopRest	XXXXX	n/a	n/a	9
197.2900000000000	0	UPPT001	118375	StartPractice	41324	n/a	n/a	10
198.1416666666667	0	n/a	118886	KeyDown	41324	4	Index	10
198.5116666666667	0	n/a	119108	KeyDown	41324	1	Little	10
198.9666666666667	0	n/a	119381	KeyDown	41324	3	Middle	10
199.2416666666667	0	n/a	119546	KeyDown	41324	2	Ring	10
199.5616666666667	0	n/a	119738	KeyDown	41324	4	Index	10
199.9566666666667	0	n/a	119975	KeyDown	41324	4	Index	10
200.2783333333333	0	n/a	120168	KeyDown	41324	1	Little	10
200.7050000000000	0	n/a	120424	KeyDown	41324	3	Middle	10
200.9883333333333	0	n/a	120594	KeyDown	41324	2	Ring	10
201.3183333333334	0	n/a	120792	KeyDown	41324	4	Index	10
201.6633333333334	0	n/a	120999	KeyDown	41324	4	Index	10
201.9683333333333	0	n/a	121182	KeyDown	41324	1	Little	10
202.4416666666667	0	n/a	121466	KeyDown	41324	3	Middle	10
202.6866666666667	0	n/a	121613	KeyDown	41324	2	Ring	10
202.9733333333334	0	n/a	121785	KeyDown	41324	4	Index	10
203.3333333333333	0	n/a	122001	KeyDown	41324	4	Index	10
203.6066666666667	0	n/a	122165	KeyDown	41324	1	Little	10
203.9883333333333	0	n/a	122394	KeyDown	41324	3	Middle	10
204.2366666666667	0	n/a	122543	KeyDown	41324	2	Ring	10
204.5250000000000	0	n/a	122716	KeyDown	41324	4	Index	10
204.8850000000000	0	n/a	122932	KeyDown	41324	4	Index	10
205.1416666666667	0	n/a	123086	KeyDown	41324	1	Little	10
205.4916666666667	0	n/a	123296	KeyDown	41324	3	Middle	10
205.7583333333334	0	n/a	123456	KeyDown	41324	2	Ring	10
206.0683333333334	0	n/a	123642	KeyDown	41324	4	Index	10
206.4366666666667	0	n/a	123863	KeyDown	41324	4	Index	10
206.7266666666667	0	n/a	124037	KeyDown	41324	1	Little	10
207.0133333333333	0	n/a	124209	KeyDown	41324	3	Middle	10
207.3283333333333	0	n/a	124398	StopPractice	41324	n/a	n/a	10
207.3300000000000	0	n/a	124399	StartRest	XXXXX	n/a	n/a	10
217.3633333333333	0	n/a	130419	StopRest	XXXXX	n/a	n/a	10
217.3650000000000	0	UPPT001	130420	StartPractice	41324	n/a	n/a	11
217.8800000000000	0	n/a	130729	KeyDown	41324	4	Index	11
218.1683333333334	0	n/a	130902	KeyDown	41324	1	Little	11
218.4533333333333	0	n/a	131073	KeyDown	41324	3	Middle	11
218.7283333333334	0	n/a	131238	KeyDown	41324	2	Ring	11
219.0416666666667	0	n/a	131426	KeyDown	41324	4	Index	11
219.3416666666667	0	n/a	131606	KeyDown	41324	4	Index	11
219.6316666666667	0	n/a	131780	KeyDown	41324	1	Little	11
219.9416666666667	0	n/a	131966	KeyDown	41324	3	Middle	11
220.3316666666667	0	n/a	132200	KeyDown	41324	2	Ring	11
220.7766666666667	0	n/a	132467	KeyDown	41324	4	Index	11
221.0533333333333	0	n/a	132633	KeyDown	41324	4	Index	11
221.4833333333333	0	n/a	132891	KeyDown	41324	1	Little	11
221.8616666666667	0	n/a	133118	KeyDown	41324	3	Middle	11
222.0833333333333	0	n/a	133251	KeyDown	41324	2	Ring	11
222.3466666666667	0	n/a	133409	KeyDown	41324	4	Index	11
222.7283333333334	0	n/a	133638	KeyDown	41324	4	Index	11
222.9533333333333	0	n/a	133773	KeyDown	41324	1	Little	11
223.3916666666667	0	n/a	134036	KeyDown	41324	4	Index	11
224.3466666666667	0	n/a	134609	KeyDown	41324	4	Index	11
224.5966666666667	0	n/a	134759	KeyDown	41324	4	Index	11
224.8633333333333	0	n/a	134919	KeyDown	41324	1	Little	11
225.1566666666667	0	n/a	135095	KeyDown	41324	3	Middle	11
225.3850000000000	0	n/a	135232	KeyDown	41324	2	Ring	11
225.6483333333333	0	n/a	135390	KeyDown	41324	4	Index	11
226.1383333333333	0	n/a	135684	KeyDown	41324	4	Index	11
226.4333333333333	0	n/a	135861	KeyDown	41324	1	Little	11
226.7866666666667	0	n/a	136073	KeyDown	41324	3	Middle	11
227.0416666666667	0	n/a	136226	KeyDown	41324	2	Ring	11
227.3366666666667	0	n/a	136403	KeyDown	41324	4	Index	11
227.4033333333333	0	n/a	136443	StopPractice	41324	n/a	n/a	11
227.4050000000000	0	n/a	136444	StartRest	XXXXX	n/a	n/a	11
237.4383333333334	0	n/a	142464	StopRest	XXXXX	n/a	n/a	11
237.4400000000000	0	UPPT001	142465	StartPractice	41324	n/a	n/a	12
238.1166666666667	0	n/a	142871	KeyDown	41324	4	Index	12
238.4333333333333	0	n/a	143061	KeyDown	41324	1	Little	12
238.6866666666667	0	n/a	143213	KeyDown	41324	3	Middle	12
238.9800000000000	0	n/a	143389	KeyDown	41324	2	Ring	12
239.3166666666667	0	n/a	143591	KeyDown	41324	4	Index	12
239.6383333333333	0	n/a	143784	KeyDown	41324	4	Index	12
239.9183333333334	0	n/a	143952	KeyDown	41324	1	Little	12
240.2166666666667	0	n/a	144131	KeyDown	41324	3	Middle	12
240.4800000000000	0	n/a	144289	KeyDown	41324	2	Ring	12
240.7833333333334	0	n/a	144471	KeyDown	41324	4	Index	12
241.1100000000000	0	n/a	144667	KeyDown	41324	4	Index	12
241.3566666666667	0	n/a	144815	KeyDown	41324	1	Little	12
241.6400000000000	0	n/a	144985	KeyDown	41324	3	Middle	12
241.9150000000000	0	n/a	145150	KeyDown	41324	2	Ring	12
242.2300000000000	0	n/a	145339	KeyDown	41324	4	Index	12
242.5783333333333	0	n/a	145548	KeyDown	41324	4	Index	12
242.8350000000000	0	n/a	145702	KeyDown	41324	1	Little	12
243.1183333333333	0	n/a	145872	KeyDown	41324	3	Middle	12
243.1316666666667	0	n/a	145880	KeyDown	41324	2	Ring	12
243.1600000000000	0	n/a	145897	KeyDown	41324	4	Index	12
244.1316666666667	0	n/a	146480	KeyDown	41324	4	Index	12
244.5833333333333	0	n/a	146751	KeyDown	41324	1	Little	12
244.9566666666667	0	n/a	146975	KeyDown	41324	3	Middle	12
245.2066666666667	0	n/a	147125	KeyDown	41324	2	Ring	12
245.5016666666667	0	n/a	147302	KeyDown	41324	4	Index	12
245.8250000000000	0	n/a	147496	KeyDown	41324	4	Index	12
246.0966666666667	0	n/a	147659	KeyDown	41324	1	Little	12
246.3950000000000	0	n/a	147838	KeyDown	41324	3	Middle	12
246.6916666666667	0	n/a	148016	KeyDown	41324	2	Ring	12
247.0333333333334	0	n/a	148221	KeyDown	41324	4	Index	12
247.3466666666667	0	n/a	148409	KeyDown	41324	4	Index	12
247.4783333333334	0	n/a	148488	StopPractice	41324	n/a	n/a	12
247.4800000000000	0	n/a	148489	StartRest	XXXXX	n/a	n/a	12
257.5133333333334	0	n/a	154509	StopRest	XXXXX	n/a	n/a	12
257.5150000000000	0	UPPT001	154510	StartPractice	41324	n/a	n/a	13
258.2416666666667	0	n/a	154946	KeyDown	41324	4	Index	13
258.5650000000000	0	n/a	155140	KeyDown	41324	1	Little	13
258.8233333333333	0	n/a	155295	KeyDown	41324	3	Middle	13
259.0783333333334	0	n/a	155448	KeyDown	41324	2	Ring	13
259.3733333333333	0	n/a	155625	KeyDown	41324	4	Index	13
259.8100000000000	0	n/a	155887	KeyDown	41324	4	Index	13
260.0866666666667	0	n/a	156053	KeyDown	41324	1	Little	13
260.3466666666667	0	n/a	156209	KeyDown	41324	3	Middle	13
260.6066666666667	0	n/a	156365	KeyDown	41324	2	Ring	13
260.9033333333334	0	n/a	156543	KeyDown	41324	4	Index	13
261.2633333333334	0	n/a	156759	KeyDown	41324	4	Index	13
261.5333333333334	0	n/a	156921	KeyDown	41324	1	Little	13
261.8183333333333	0	n/a	157092	KeyDown	41324	3	Middle	13
262.1000000000000	0	n/a	157261	KeyDown	41324	2	Ring	13
262.4216666666667	0	n/a	157454	KeyDown	41324	4	Index	13
262.8516666666667	0	n/a	157712	KeyDown	41324	4	Index	13
263.2083333333334	0	n/a	157926	KeyDown	41324	1	Little	13
263.6000000000000	0	n/a	158161	KeyDown	41324	3	Middle	13
263.8216666666667	0	n/a	158294	KeyDown	41324	2	Ring	13
264.0833333333334	0	n/a	158451	KeyDown	41324	4	Index	13
264.4216666666667	0	n/a	158654	KeyDown	41324	4	Index	13
264.7133333333334	0	n/a	158829	KeyDown	41324	1	Little	13
264.9733333333334	0	n/a	158985	KeyDown	41324	3	Middle	13
265.2216666666667	0	n/a	159134	KeyDown	41324	2	Ring	13
265.5050000000000	0	n/a	159304	KeyDown	41324	4	Index	13
266.0083333333333	0	n/a	159606	KeyDown	41324	4	Index	13
266.4266666666667	0	n/a	159857	KeyDown	41324	1	Little	13
266.7016666666667	0	n/a	160022	KeyDown	41324	3	Middle	13
267.0016666666667	0	n/a	160202	KeyDown	41324	2	Ring	13
267.3466666666667	0	n/a	160409	KeyDown	41324	4	Index	13
267.5533333333333	0	n/a	160533	StopPractice	41324	n/a	n/a	13
267.5550000000000	0	n/a	160534	StartRest	XXXXX	n/a	n/a	13
277.5866666666667	0	n/a	166553	StopRest	XXXXX	n/a	n/a	13
277.5883333333334	0	UPPT001	166554	StartPractice	41324	n/a	n/a	14
278.3166666666667	0	n/a	166991	KeyDown	41324	4	Index	14
278.6183333333333	0	n/a	167172	KeyDown	41324	1	Little	14
278.8833333333333	0	n/a	167331	KeyDown	41324	3	Middle	14
279.1300000000000	0	n/a	167479	KeyDown	41324	2	Ring	14
279.4116666666667	0	n/a	167648	KeyDown	41324	4	Index	14
279.7766666666667	0	n/a	167867	KeyDown	41324	4	Index	14
280.0550000000000	0	n/a	168034	KeyDown	41324	1	Little	14
280.3716666666667	0	n/a	168224	KeyDown	41324	3	Middle	14
280.6316666666667	0	n/a	168380	KeyDown	41324	2	Ring	14
280.9300000000000	0	n/a	168559	KeyDown	41324	4	Index	14
281.2716666666667	0	n/a	168764	KeyDown	41324	4	Index	14
281.7200000000000	0	n/a	169033	KeyDown	41324	1	Little	14
282.1183333333333	0	n/a	169272	KeyDown	41324	3	Middle	14
282.3650000000000	0	n/a	169420	KeyDown	41324	2	Ring	14
282.6550000000000	0	n/a	169594	KeyDown	41324	4	Index	14
283.0800000000000	0	n/a	169849	KeyDown	41324	4	Index	14
283.4266666666667	0	n/a	170057	KeyDown	41324	1	Little	14
283.7333333333333	0	n/a	170241	KeyDown	41324	3	Middle	14
283.9916666666667	0	n/a	170396	KeyDown	41324	2	Ring	14
284.2916666666667	0	n/a	170576	KeyDown	41324	4	Index	14
284.6750000000000	0	n/a	170806	KeyDown	41324	4	Index	14
284.9816666666667	0	n/a	170990	KeyDown	41324	1	Little	14
285.3100000000000	0	n/a	171187	KeyDown	41324	3	Middle	14
285.6750000000000	0	n/a	171406	KeyDown	41324	2	Ring	14
286.0916666666667	0	n/a	171656	KeyDown	41324	4	Index	14
286.9500000000000	0	n/a	172171	KeyDown	41324	4	Index	14
287.2366666666667	0	n/a	172343	KeyDown	41324	1	Little	14
287.5016666666667	0	n/a	172502	KeyDown	41324	3	Middle	14
287.6266666666667	0	n/a	172577	StopPractice	41324	n/a	n/a	14
287.6283333333333	0	n/a	172578	StartRest	XXXXX	n/a	n/a	14
297.6633333333334	0	n/a	178599	StopRest	XXXXX	n/a	n/a	14
297.6650000000000	0	UPPT001	178600	StartPractice	41324	n/a	n/a	15
298.5433333333334	0	n/a	179127	KeyDown	41324	4	Index	15
298.8533333333334	0	n/a	179313	KeyDown	41324	1	Little	15
299.1250000000000	0	n/a	179476	KeyDown	41324	3	Middle	15
299.4066666666667	0	n/a	179645	KeyDown	41324	2	Ring	15
299.7316666666667	0	n/a	179840	KeyDown	41324	4	Index	15
300.1050000000000	0	n/a	180064	KeyDown	41324	4	Index	15
300.4583333333334	0	n/a	180276	KeyDown	41324	1	Little	15
301.3300000000000	0	n/a	180799	KeyDown	41324	3	Middle	15
301.5800000000000	0	n/a	180949	KeyDown	41324	2	Ring	15
301.8850000000000	0	n/a	181132	KeyDown	41324	4	Index	15
302.2466666666667	0	n/a	181349	KeyDown	41324	4	Index	15
302.5383333333334	0	n/a	181524	KeyDown	41324	1	Little	15
302.8566666666667	0	n/a	181715	KeyDown	41324	3	Middle	15
303.1716666666667	0	n/a	181904	KeyDown	41324	2	Ring	15
303.5316666666667	0	n/a	182120	KeyDown	41324	4	Index	15
303.8816666666667	0	n/a	182330	KeyDown	41324	4	Index	15
304.1666666666667	0	n/a	182501	KeyDown	41324	1	Little	15
304.5000000000000	0	n/a	182701	KeyDown	41324	3	Middle	15
304.7733333333334	0	n/a	182865	KeyDown	41324	2	Ring	15
305.0883333333334	0	n/a	183054	KeyDown	41324	4	Index	15
305.4833333333333	0	n/a	183291	KeyDown	41324	4	Index	15
305.8650000000000	0	n/a	183520	KeyDown	41324	1	Little	15
306.2616666666667	0	n/a	183758	KeyDown	41324	3	Middle	15
306.5133333333334	0	n/a	183909	KeyDown	41324	2	Ring	15
306.8083333333333	0	n/a	184086	KeyDown	41324	4	Index	15
307.2733333333334	0	n/a	184365	KeyDown	41324	4	Index	15
307.7033333333334	0	n/a	184623	StopPractice	41324	n/a	n/a	15
307.7050000000000	0	n/a	184624	StartRest	XXXXX	n/a	n/a	15
317.7383333333333	0	n/a	190644	StopRest	XXXXX	n/a	n/a	15
317.7400000000000	0	UPPT001	190645	StartPractice	41324	n/a	n/a	16
318.7500000000000	0	n/a	191251	KeyDown	41324	4	Index	16
319.0550000000000	0	n/a	191434	KeyDown	41324	1	Little	16
319.3216666666667	0	n/a	191594	KeyDown	41324	3	Middle	16
319.5883333333334	0	n/a	191754	KeyDown	41324	2	Ring	16
319.8966666666667	0	n/a	191939	KeyDown	41324	4	Index	16
320.2483333333333	0	n/a	192150	KeyDown	41324	4	Index	16
320.5583333333333	0	n/a	192336	KeyDown	41324	1	Little	16
320.8500000000000	0	n/a	192511	KeyDown	41324	3	Middle	16
321.0916666666667	0	n/a	192656	KeyDown	41324	2	Ring	16
321.3733333333333	0	n/a	192825	KeyDown	41324	4	Index	16
321.8150000000000	0	n/a	193090	KeyDown	41324	4	Index	16
322.0833333333334	0	n/a	193251	KeyDown	41324	1	Little	16
322.4100000000000	0	n/a	193447	KeyDown	41324	3	Middle	16
322.7400000000000	0	n/a	193645	KeyDown	41324	2	Ring	16
323.1166666666667	0	n/a	193871	KeyDown	41324	4	Index	16
323.5483333333333	0	n/a	194130	KeyDown	41324	4	Index	16
323.7783333333334	0	n/a	194268	KeyDown	41324	1	Little	16
324.0933333333334	0	n/a	194457	KeyDown	41324	3	Middle	16
324.3633333333333	0	n/a	194619	KeyDown	41324	2	Ring	16
324.6733333333333	0	n/a	194805	KeyDown	41324	4	Index	16
325.1133333333333	0	n/a	195069	KeyDown	41324	4	Index	16
325.3633333333333	0	n/a	195219	KeyDown	41324	1	Little	16
325.6816666666667	0	n/a	195410	KeyDown	41324	3	Middle	16
325.9466666666667	0	n/a	195569	KeyDown	41324	2	Ring	16
326.2516666666667	0	n/a	195752	KeyDown	41324	4	Index	16
326.6716666666667	0	n/a	196004	KeyDown	41324	4	Index	16
326.9766666666667	0	n/a	196187	KeyDown	41324	1	Little	16
327.4383333333333	0	n/a	196464	KeyDown	41324	3	Middle	16
327.7783333333334	0	n/a	196668	StopPractice	41324	n/a	n/a	16
327.7800000000000	0	n/a	196669	StartRest	XXXXX	n/a	n/a	16
337.8116666666667	0	n/a	202688	StopRest	XXXXX	n/a	n/a	16
337.8133333333333	0	UPPT001	202689	StartPractice	41324	n/a	n/a	17
338.5400000000000	0	n/a	203125	KeyDown	41324	4	Index	17
338.8566666666667	0	n/a	203315	KeyDown	41324	1	Little	17
339.1600000000000	0	n/a	203497	KeyDown	41324	3	Middle	17
339.4333333333333	0	n/a	203661	KeyDown	41324	2	Ring	17
339.7500000000000	0	n/a	203851	KeyDown	41324	4	Index	17
340.1350000000000	0	n/a	204082	KeyDown	41324	4	Index	17
340.4366666666667	0	n/a	204263	KeyDown	41324	1	Little	17
340.7716666666667	0	n/a	204464	KeyDown	41324	3	Middle	17
341.0266666666667	0	n/a	204617	KeyDown	41324	2	Ring	17
341.3216666666667	0	n/a	204794	KeyDown	41324	4	Index	17
341.7116666666667	0	n/a	205028	KeyDown	41324	4	Index	17
341.9966666666667	0	n/a	205199	KeyDown	41324	1	Little	17
342.2900000000000	0	n/a	205375	KeyDown	41324	3	Middle	17
342.5933333333334	0	n/a	205557	KeyDown	41324	2	Ring	17
342.9416666666667	0	n/a	205766	KeyDown	41324	4	Index	17
343.2966666666667	0	n/a	205979	KeyDown	41324	4	Index	17
343.5750000000000	0	n/a	206146	KeyDown	41324	1	Little	17
343.8733333333333	0	n/a	206325	KeyDown	41324	3	Middle	17
344.1616666666667	0	n/a	206498	KeyDown	41324	2	Ring	17
344.4950000000000	0	n/a	206698	KeyDown	41324	4	Index	17
344.8600000000000	0	n/a	206917	KeyDown	41324	4	Index	17
345.1816666666667	0	n/a	207110	KeyDown	41324	1	Little	17
345.4550000000000	0	n/a	207274	KeyDown	41324	3	Middle	17
345.7666666666667	0	n/a	207461	KeyDown	41324	2	Ring	17
346.1233333333333	0	n/a	207675	KeyDown	41324	4	Index	17
346.5300000000000	0	n/a	207919	KeyDown	41324	4	Index	17
346.7816666666667	0	n/a	208070	KeyDown	41324	1	Little	17
347.0600000000000	0	n/a	208237	KeyDown	41324	3	Middle	17
347.8516666666667	0	n/a	208712	StopPractice	41324	n/a	n/a	17
347.8533333333334	0	n/a	208713	StartRest	XXXXX	n/a	n/a	17
357.8866666666667	0	n/a	214733	StopRest	XXXXX	n/a	n/a	17
357.8883333333334	0	UPPT001	214734	StartPractice	41324	n/a	n/a	18
358.4900000000000	0	n/a	215095	KeyDown	41324	4	Index	18
358.8233333333334	0	n/a	215295	KeyDown	41324	1	Little	18
359.1033333333334	0	n/a	215463	KeyDown	41324	3	Middle	18
359.3500000000000	0	n/a	215611	KeyDown	41324	2	Ring	18
359.6350000000000	0	n/a	215782	KeyDown	41324	4	Index	18
359.9850000000000	0	n/a	215992	KeyDown	41324	4	Index	18
360.2633333333334	0	n/a	216159	KeyDown	41324	1	Little	18
360.5800000000000	0	n/a	216349	KeyDown	41324	3	Middle	18
360.8450000000000	0	n/a	216508	KeyDown	41324	2	Ring	18
361.1500000000000	0	n/a	216691	KeyDown	41324	4	Index	18
361.4916666666667	0	n/a	216896	KeyDown	41324	4	Index	18
361.7833333333334	0	n/a	217071	KeyDown	41324	1	Little	18
362.4383333333333	0	n/a	217464	KeyDown	41324	3	Middle	18
362.6616666666667	0	n/a	217598	KeyDown	41324	2	Ring	18
362.9300000000000	0	n/a	217759	KeyDown	41324	4	Index	18
363.2483333333333	0	n/a	217950	KeyDown	41324	4	Index	18
363.5333333333334	0	n/a	218121	KeyDown	41324	1	Little	18
363.8666666666667	0	n/a	218321	KeyDown	41324	3	Middle	18
364.1383333333334	0	n/a	218484	KeyDown	41324	2	Ring	18
364.4516666666667	0	n/a	218672	KeyDown	41324	4	Index	18
364.8533333333334	0	n/a	218913	KeyDown	41324	4	Index	18
365.1700000000000	0	n/a	219103	KeyDown	41324	1	Little	18
365.6566666666667	0	n/a	219395	KeyDown	41324	3	Middle	18
366.0300000000000	0	n/a	219619	KeyDown	41324	2	Ring	18
366.4600000000000	0	n/a	219877	KeyDown	41324	4	Index	18
366.7300000000000	0	n/a	220039	KeyDown	41324	4	Index	18
367.0516666666667	0	n/a	220232	KeyDown	41324	1	Little	18
367.3266666666667	0	n/a	220397	KeyDown	41324	3	Middle	18
367.9266666666667	0	n/a	220757	StopPractice	41324	n/a	n/a	18
367.9283333333333	0	n/a	220758	StartRest	XXXXX	n/a	n/a	18
377.9616666666667	0	n/a	226778	StopRest	XXXXX	n/a	n/a	18
377.9633333333334	0	UPPT001	226779	StartPractice	41324	n/a	n/a	19
379.1933333333334	0	n/a	227517	KeyDown	41324	4	Index	19
379.5000000000000	0	n/a	227701	KeyDown	41324	1	Little	19
379.7650000000000	0	n/a	227860	KeyDown	41324	3	Middle	19
380.0416666666667	0	n/a	228026	KeyDown	41324	2	Ring	19
380.3616666666667	0	n/a	228218	KeyDown	41324	4	Index	19
380.7183333333334	0	n/a	228432	KeyDown	41324	4	Index	19
381.0550000000000	0	n/a	228634	KeyDown	41324	1	Little	19
381.4416666666667	0	n/a	228866	KeyDown	41324	3	Middle	19
381.7716666666667	0	n/a	229064	KeyDown	41324	2	Ring	19
382.1516666666667	0	n/a	229292	KeyDown	41324	4	Index	19
382.6050000000000	0	n/a	229564	KeyDown	41324	4	Index	19
382.9516666666667	0	n/a	229772	KeyDown	41324	1	Little	19
383.2650000000000	0	n/a	229960	KeyDown	41324	3	Middle	19
383.5000000000000	0	n/a	230101	KeyDown	41324	2	Ring	19
383.7716666666667	0	n/a	230264	KeyDown	41324	4	Index	19
384.2233333333334	0	n/a	230535	KeyDown	41324	4	Index	19
384.6066666666667	0	n/a	230765	KeyDown	41324	1	Little	19
384.9083333333334	0	n/a	230946	KeyDown	41324	3	Middle	19
385.1833333333333	0	n/a	231111	KeyDown	41324	2	Ring	19
385.5016666666667	0	n/a	231302	KeyDown	41324	4	Index	19
386.4300000000000	0	n/a	231859	KeyDown	41324	4	Index	19
386.7733333333334	0	n/a	232065	KeyDown	41324	1	Little	19
387.0916666666667	0	n/a	232256	KeyDown	41324	3	Middle	19
387.3300000000000	0	n/a	232399	KeyDown	41324	2	Ring	19
387.6083333333333	0	n/a	232566	KeyDown	41324	4	Index	19
387.9400000000000	0	n/a	232765	KeyDown	41324	4	Index	19
388.0016666666667	0	n/a	232802	StopPractice	41324	n/a	n/a	19
388.0033333333333	0	n/a	232803	StartRest	XXXXX	n/a	n/a	19
398.0366666666667	0	n/a	238823	StopRest	XXXXX	n/a	n/a	19
398.0383333333334	0	UPPT001	238824	StartPractice	41324	n/a	n/a	20
399.2183333333334	0	n/a	239532	KeyDown	41324	4	Index	20
399.5100000000000	0	n/a	239707	KeyDown	41324	1	Little	20
399.7933333333334	0	n/a	239877	KeyDown	41324	3	Middle	20
400.0883333333334	0	n/a	240054	KeyDown	41324	2	Ring	20
400.4266666666667	0	n/a	240257	KeyDown	41324	4	Index	20
400.8300000000000	0	n/a	240499	KeyDown	41324	4	Index	20
401.2166666666667	0	n/a	240731	KeyDown	41324	1	Little	20
401.5633333333333	0	n/a	240939	KeyDown	41324	3	Middle	20
401.8700000000000	0	n/a	241123	KeyDown	41324	2	Ring	20
402.2250000000000	0	n/a	241336	KeyDown	41324	4	Index	20
402.5650000000000	0	n/a	241540	KeyDown	41324	4	Index	20
402.8216666666667	0	n/a	241694	KeyDown	41324	1	Little	20
403.1116666666667	0	n/a	241868	KeyDown	41324	3	Middle	20
403.4000000000000	0	n/a	242041	KeyDown	41324	2	Ring	20
403.7266666666667	0	n/a	242237	KeyDown	41324	4	Index	20
404.1483333333334	0	n/a	242490	KeyDown	41324	4	Index	20
404.4750000000000	0	n/a	242686	KeyDown	41324	1	Little	20
404.8116666666667	0	n/a	242888	KeyDown	41324	3	Middle	20
405.0633333333333	0	n/a	243039	KeyDown	41324	2	Ring	20
405.3550000000000	0	n/a	243214	KeyDown	41324	4	Index	20
405.7200000000000	0	n/a	243433	KeyDown	41324	4	Index	20
406.1216666666667	0	n/a	243674	KeyDown	41324	1	Little	20
406.4183333333334	0	n/a	243852	KeyDown	41324	3	Middle	20
406.6916666666667	0	n/a	244016	KeyDown	41324	2	Ring	20
407.0066666666667	0	n/a	244205	KeyDown	41324	4	Index	20
407.3766666666667	0	n/a	244427	KeyDown	41324	4	Index	20
407.7616666666667	0	n/a	244658	KeyDown	41324	1	Little	20
408.0050000000001	0	n/a	244804	KeyDown	41324	3	Middle	20
408.0766666666667	0	n/a	244847	StopPractice	41324	n/a	n/a	20
408.0783333333334	0	n/a	244848	StartRest	XXXXX	n/a	n/a	20
418.1116666666667	0	n/a	250868	StopRest	XXXXX	n/a	n/a	20
418.1133333333333	0	UPPT001	250869	StartPractice	41324	n/a	n/a	21
418.8100000000000	0	n/a	251287	KeyDown	41324	4	Index	21
419.1566666666667	0	n/a	251495	KeyDown	41324	1	Little	21
419.4066666666667	0	n/a	251645	KeyDown	41324	3	Middle	21
419.6600000000000	0	n/a	251797	KeyDown	41324	2	Ring	21
419.9550000000000	0	n/a	251974	KeyDown	41324	4	Index	21
420.2916666666667	0	n/a	252176	KeyDown	41324	4	Index	21
420.6066666666667	0	n/a	252365	KeyDown	41324	1	Little	21
420.9100000000000	0	n/a	252547	KeyDown	41324	3	Middle	21
421.1766666666667	0	n/a	252707	KeyDown	41324	2	Ring	21
421.4850000000000	0	n/a	252892	KeyDown	41324	4	Index	21
421.8350000000000	0	n/a	253102	KeyDown	41324	4	Index	21
422.1066666666667	0	n/a	253265	KeyDown	41324	1	Little	21
422.4033333333334	0	n/a	253443	KeyDown	41324	3	Middle	21
422.6716666666667	0	n/a	253604	KeyDown	41324	2	Ring	21
422.9800000000000	0	n/a	253789	KeyDown	41324	4	Index	21
423.3416666666667	0	n/a	254006	KeyDown	41324	4	Index	21
423.6066666666667	0	n/a	254165	KeyDown	41324	1	Little	21
423.9350000000000	0	n/a	254362	KeyDown	41324	3	Middle	21
424.2066666666667	0	n/a	254525	KeyDown	41324	2	Ring	21
424.5200000000000	0	n/a	254713	KeyDown	41324	4	Index	21
424.8250000000000	0	n/a	254896	KeyDown	41324	4	Index	21
425.1150000000000	0	n/a	255070	KeyDown	41324	1	Little	21
425.4033333333334	0	n/a	255243	KeyDown	41324	3	Middle	21
425.6766666666667	0	n/a	255407	KeyDown	41324	2	Ring	21
425.9916666666667	0	n/a	255596	KeyDown	41324	4	Index	21
426.3616666666667	0	n/a	255818	KeyDown	41324	4	Index	21
426.6283333333334	0	n/a	255978	KeyDown	41324	1	Little	21
426.9300000000000	0	n/a	256159	KeyDown	41324	3	Middle	21
427.2550000000001	0	n/a	256354	KeyDown	41324	2	Ring	21
427.6250000000000	0	n/a	256576	KeyDown	41324	4	Index	21
428.1516666666667	0	n/a	256892	StopPractice	41324	n/a	n/a	21
428.1533333333334	0	n/a	256893	StartRest	XXXXX	n/a	n/a	21
438.1866666666667	0	n/a	262913	StopRest	XXXXX	n/a	n/a	21
438.1883333333334	0	UPPT001	262914	StartPractice	41324	n/a	n/a	22
438.8516666666667	0	n/a	263312	KeyDown	41324	4	Index	22
439.1783333333333	0	n/a	263508	KeyDown	41324	1	Little	22
439.4866666666667	0	n/a	263693	KeyDown	41324	3	Middle	22
440.2716666666667	0	n/a	264164	KeyDown	41324	2	Ring	22
441.1500000000000	0	n/a	264691	KeyDown	41324	4	Index	22
441.8666666666667	0	n/a	265121	KeyDown	41324	4	Index	22
442.4166666666667	0	n/a	265451	KeyDown	41324	1	Little	22
442.6966666666667	0	n/a	265619	KeyDown	41324	3	Middle	22
442.9450000000001	0	n/a	265768	KeyDown	41324	2	Ring	22
443.2366666666667	0	n/a	265943	KeyDown	41324	4	Index	22
443.7100000000000	0	n/a	266227	KeyDown	41324	4	Index	22
443.9666666666667	0	n/a	266381	KeyDown	41324	1	Little	22
444.2050000000000	0	n/a	266524	KeyDown	41324	3	Middle	22
444.4350000000000	0	n/a	266662	KeyDown	41324	2	Ring	22
444.6983333333334	0	n/a	266820	KeyDown	41324	4	Index	22
445.0450000000000	0	n/a	267028	KeyDown	41324	4	Index	22
445.3016666666667	0	n/a	267182	KeyDown	41324	1	Little	22
445.6000000000000	0	n/a	267361	KeyDown	41324	3	Middle	22
445.8616666666667	0	n/a	267518	KeyDown	41324	2	Ring	22
446.1650000000000	0	n/a	267700	KeyDown	41324	4	Index	22
446.5850000000000	0	n/a	267952	KeyDown	41324	4	Index	22
446.8533333333334	0	n/a	268113	KeyDown	41324	1	Little	22
447.1100000000000	0	n/a	268267	KeyDown	41324	3	Middle	22
447.3566666666667	0	n/a	268415	KeyDown	41324	2	Ring	22
447.6400000000000	0	n/a	268585	KeyDown	41324	4	Index	22
448.0700000000001	0	n/a	268843	KeyDown	41324	4	Index	22
448.2266666666667	0	n/a	268937	StopPractice	41324	n/a	n/a	22
448.2283333333334	0	n/a	268938	StartRest	XXXXX	n/a	n/a	22
458.2616666666667	0	n/a	274958	StopRest	XXXXX	n/a	n/a	22
458.2633333333334	0	UPPT001	274959	StartPractice	41324	n/a	n/a	23
458.4316666666667	0	n/a	275060	KeyDown	41324	3	Middle	23
459.6216666666667	0	n/a	275774	KeyDown	41324	4	Index	23
459.9016666666667	0	n/a	275942	KeyDown	41324	1	Little	23
460.2016666666667	0	n/a	276122	KeyDown	41324	3	Middle	23
460.4366666666667	0	n/a	276263	KeyDown	41324	2	Ring	23
460.7116666666667	0	n/a	276428	KeyDown	41324	4	Index	23
461.0316666666667	0	n/a	276620	KeyDown	41324	4	Index	23
461.3183333333334	0	n/a	276792	KeyDown	41324	1	Little	23
461.6850000000000	0	n/a	277012	KeyDown	41324	3	Middle	23
462.0950000000000	0	n/a	277258	KeyDown	41324	2	Ring	23
462.5583333333333	0	n/a	277536	KeyDown	41324	4	Index	23
462.8216666666667	0	n/a	277694	KeyDown	41324	4	Index	23
463.0933333333334	0	n/a	277857	KeyDown	41324	1	Little	23
463.4433333333334	0	n/a	278067	KeyDown	41324	3	Middle	23
463.6916666666667	0	n/a	278216	KeyDown	41324	2	Ring	23
463.9783333333334	0	n/a	278388	KeyDown	41324	4	Index	23
464.3066666666667	0	n/a	278585	KeyDown	41324	4	Index	23
464.7516666666667	0	n/a	278852	KeyDown	41324	1	Little	23
465.0483333333333	0	n/a	279030	KeyDown	41324	3	Middle	23
465.3033333333333	0	n/a	279183	KeyDown	41324	2	Ring	23
465.6016666666667	0	n/a	279362	KeyDown	41324	4	Index	23
465.9250000000000	0	n/a	279556	KeyDown	41324	4	Index	23
466.2266666666667	0	n/a	279737	KeyDown	41324	1	Little	23
466.4800000000000	0	n/a	279889	KeyDown	41324	3	Middle	23
466.7333333333333	0	n/a	280041	KeyDown	41324	2	Ring	23
467.0250000000000	0	n/a	280216	KeyDown	41324	4	Index	23
467.3666666666667	0	n/a	280421	KeyDown	41324	4	Index	23
467.6483333333334	0	n/a	280590	KeyDown	41324	1	Little	23
467.9983333333334	0	n/a	280800	KeyDown	41324	3	Middle	23
468.2616666666667	0	n/a	280958	KeyDown	41324	3	Middle	23
468.3016666666667	0	n/a	280982	StopPractice	41324	n/a	n/a	23
468.3033333333333	0	n/a	280983	StartRest	XXXXX	n/a	n/a	23
478.3350000000000	0	n/a	287002	StopRest	XXXXX	n/a	n/a	23
478.3366666666667	0	UPPT001	287003	StartPractice	41324	n/a	n/a	24
479.0100000000000	0	n/a	287407	KeyDown	41324	4	Index	24
479.2333333333333	0	n/a	287541	KeyDown	41324	1	Little	24
479.5100000000000	0	n/a	287707	KeyDown	41324	3	Middle	24
479.7700000000000	0	n/a	287863	KeyDown	41324	2	Ring	24
480.0683333333334	0	n/a	288042	KeyDown	41324	4	Index	24
480.4500000000000	0	n/a	288271	KeyDown	41324	4	Index	24
481.2100000000000	0	n/a	288727	KeyDown	41324	4	Index	24
481.5033333333334	0	n/a	288903	KeyDown	41324	1	Little	24
481.7683333333334	0	n/a	289062	KeyDown	41324	3	Middle	24
481.9916666666667	0	n/a	289196	KeyDown	41324	2	Ring	24
482.2500000000001	0	n/a	289351	KeyDown	41324	4	Index	24
482.5566666666667	0	n/a	289535	KeyDown	41324	4	Index	24
482.8283333333334	0	n/a	289698	KeyDown	41324	1	Little	24
483.1083333333333	0	n/a	289866	KeyDown	41324	3	Middle	24
483.3483333333334	0	n/a	290010	KeyDown	41324	2	Ring	24
483.6250000000001	0	n/a	290176	KeyDown	41324	4	Index	24
483.9600000000000	0	n/a	290377	KeyDown	41324	4	Index	24
484.2150000000000	0	n/a	290530	KeyDown	41324	1	Little	24
484.5350000000000	0	n/a	290722	KeyDown	41324	3	Middle	24
484.7983333333333	0	n/a	290880	KeyDown	41324	2	Ring	24
485.1000000000000	0	n/a	291061	KeyDown	41324	4	Index	24
485.5850000000000	0	n/a	291352	KeyDown	41324	4	Index	24
486.1800000000000	0	n/a	291709	KeyDown	41324	1	Little	24
486.4600000000000	0	n/a	291877	KeyDown	41324	3	Middle	24
486.7550000000001	0	n/a	292054	KeyDown	41324	2	Ring	24
487.1016666666667	0	n/a	292262	KeyDown	41324	4	Index	24
487.7150000000000	0	n/a	292630	KeyDown	41324	4	Index	24
488.2750000000000	0	n/a	292966	KeyDown	41324	1	Little	24
488.3750000000001	0	n/a	293026	StopPractice	41324	n/a	n/a	24
488.3766666666667	0	n/a	293027	StartRest	XXXXX	n/a	n/a	24
498.4116666666667	0	n/a	299048	StopRest	XXXXX	n/a	n/a	24
498.4133333333334	0	UPPT001	299049	StartPractice	41324	n/a	n/a	25
499.2616666666667	0	n/a	299558	KeyDown	41324	4	Index	25
499.5966666666667	0	n/a	299759	KeyDown	41324	1	Little	25
499.9233333333333	0	n/a	299955	KeyDown	41324	3	Middle	25
500.1850000000001	0	n/a	300112	KeyDown	41324	2	Ring	25
500.4883333333333	0	n/a	300294	KeyDown	41324	4	Index	25
500.8133333333334	0	n/a	300489	KeyDown	41324	4	Index	25
501.0750000000000	0	n/a	300646	KeyDown	41324	1	Little	25
501.3850000000000	0	n/a	300832	KeyDown	41324	3	Middle	25
501.7133333333334	0	n/a	301029	KeyDown	41324	2	Ring	25
502.0883333333334	0	n/a	301254	KeyDown	41324	4	Index	25
502.3666666666667	0	n/a	301421	KeyDown	41324	4	Index	25
502.6950000000001	0	n/a	301618	KeyDown	41324	1	Little	25
502.9950000000000	0	n/a	301798	KeyDown	41324	3	Middle	25
503.2983333333333	0	n/a	301980	KeyDown	41324	2	Ring	25
503.6466666666667	0	n/a	302189	KeyDown	41324	4	Index	25
503.9616666666667	0	n/a	302378	KeyDown	41324	4	Index	25
504.2700000000000	0	n/a	302563	KeyDown	41324	1	Little	25
504.6000000000000	0	n/a	302761	KeyDown	41324	3	Middle	25
504.8866666666667	0	n/a	302933	KeyDown	41324	2	Ring	25
505.2150000000000	0	n/a	303130	KeyDown	41324	4	Index	25
505.5050000000001	0	n/a	303304	KeyDown	41324	4	Index	25
505.7966666666667	0	n/a	303479	KeyDown	41324	1	Little	25
506.2133333333334	0	n/a	303729	KeyDown	41324	3	Middle	25
506.4666666666667	0	n/a	303881	KeyDown	41324	2	Ring	25
506.7633333333334	0	n/a	304059	KeyDown	41324	4	Index	25
507.0966666666667	0	n/a	304259	KeyDown	41324	4	Index	25
507.3800000000001	0	n/a	304429	KeyDown	41324	1	Little	25
507.8900000000000	0	n/a	304735	KeyDown	41324	3	Middle	25
508.1383333333334	0	n/a	304884	KeyDown	41324	2	Ring	25
508.4300000000000	0	n/a	305059	KeyDown	41324	4	Index	25
508.4516666666667	0	n/a	305072	StopPractice	41324	n/a	n/a	25
508.4533333333334	0	n/a	305073	StartRest	XXXXX	n/a	n/a	25
518.4850000000000	0	n/a	311092	StopRest	XXXXX	n/a	n/a	25
518.4866666666667	0	UPPT001	311093	StartPractice	41324	n/a	n/a	26
519.2150000000000	0	n/a	311530	KeyDown	41324	4	Index	26
519.5283333333334	0	n/a	311718	KeyDown	41324	1	Little	26
519.8050000000001	0	n/a	311884	KeyDown	41324	3	Middle	26
520.0550000000001	0	n/a	312034	KeyDown	41324	2	Ring	26
520.3450000000000	0	n/a	312208	KeyDown	41324	4	Index	26
520.6533333333334	0	n/a	312393	KeyDown	41324	4	Index	26
520.9200000000001	0	n/a	312553	KeyDown	41324	1	Little	26
521.2166666666667	0	n/a	312731	KeyDown	41324	3	Middle	26
521.4683333333334	0	n/a	312882	KeyDown	41324	2	Ring	26
521.7583333333333	0	n/a	313056	KeyDown	41324	4	Index	26
522.0600000000001	0	n/a	313237	KeyDown	41324	4	Index	26
522.3733333333333	0	n/a	313425	KeyDown	41324	1	Little	26
522.6500000000000	0	n/a	313591	KeyDown	41324	3	Middle	26
522.9150000000001	0	n/a	313750	KeyDown	41324	2	Ring	26
523.2216666666667	0	n/a	313934	KeyDown	41324	4	Index	26
523.6050000000000	0	n/a	314164	KeyDown	41324	4	Index	26
523.8600000000000	0	n/a	314317	KeyDown	41324	1	Little	26
524.1283333333333	0	n/a	314478	KeyDown	41324	3	Middle	26
524.4166666666667	0	n/a	314651	KeyDown	41324	2	Ring	26
524.7466666666667	0	n/a	314849	KeyDown	41324	4	Index	26
525.0683333333334	0	n/a	315042	KeyDown	41324	4	Index	26
525.3150000000001	0	n/a	315190	KeyDown	41324	1	Little	26
525.6200000000000	0	n/a	315373	KeyDown	41324	3	Middle	26
525.8700000000000	0	n/a	315523	KeyDown	41324	2	Ring	26
526.1600000000001	0	n/a	315697	KeyDown	41324	4	Index	26
526.5183333333333	0	n/a	315912	KeyDown	41324	4	Index	26
526.8950000000000	0	n/a	316138	KeyDown	41324	1	Little	26
527.2633333333333	0	n/a	316359	KeyDown	41324	3	Middle	26
527.4950000000000	0	n/a	316498	KeyDown	41324	2	Ring	26
527.7683333333333	0	n/a	316662	KeyDown	41324	4	Index	26
528.1250000000000	0	n/a	316876	KeyDown	41324	4	Index	26
528.4150000000001	0	n/a	317050	KeyDown	41324	1	Little	26
528.5250000000000	0	n/a	317116	StopPractice	41324	n/a	n/a	26
528.5266666666668	0	n/a	317117	StartRest	XXXXX	n/a	n/a	26
538.5600000000001	0	n/a	323137	StopRest	XXXXX	n/a	n/a	26
538.5616666666667	0	UPPT001	323138	StartPractice	41324	n/a	n/a	27
539.2950000000001	0	n/a	323578	KeyDown	41324	4	Index	27
539.5833333333334	0	n/a	323751	KeyDown	41324	1	Little	27
539.8966666666666	0	n/a	323939	KeyDown	41324	4	Index	27
541.1033333333334	0	n/a	324663	KeyDown	41324	3	Middle	27
541.9016666666668	0	n/a	325142	KeyDown	41324	4	Index	27
542.1416666666667	0	n/a	325286	KeyDown	41324	1	Little	27
542.3783333333333	0	n/a	325428	KeyDown	41324	3	Middle	27
542.6150000000000	0	n/a	325570	KeyDown	41324	2	Ring	27
542.8883333333333	0	n/a	325734	KeyDown	41324	4	Index	27
543.2150000000000	0	n/a	325930	KeyDown	41324	4	Index	27
543.4800000000000	0	n/a	326089	KeyDown	41324	1	Little	27
543.7416666666667	0	n/a	326246	KeyDown	41324	3	Middle	27
543.9933333333333	0	n/a	326397	KeyDown	41324	2	Ring	27
544.2833333333334	0	n/a	326571	KeyDown	41324	4	Index	27
544.5833333333334	0	n/a	326751	KeyDown	41324	4	Index	27
544.8716666666667	0	n/a	326924	KeyDown	41324	1	Little	27
545.1850000000001	0	n/a	327112	KeyDown	41324	3	Middle	27
545.4500000000000	0	n/a	327271	KeyDown	41324	2	Ring	27
545.7583333333333	0	n/a	327456	KeyDown	41324	4	Index	27
546.0983333333334	0	n/a	327660	KeyDown	41324	4	Index	27
546.4066666666668	0	n/a	327845	KeyDown	41324	1	Little	27
546.7433333333333	0	n/a	328047	KeyDown	41324	3	Middle	27
547.0333333333334	0	n/a	328221	KeyDown	41324	2	Ring	27
547.3683333333333	0	n/a	328422	KeyDown	41324	4	Index	27
547.7700000000000	0	n/a	328663	KeyDown	41324	4	Index	27
548.2083333333334	0	n/a	328926	KeyDown	41324	1	Little	27
548.5266666666668	0	n/a	329117	KeyDown	41324	3	Middle	27
548.6000000000000	0	n/a	329161	StopPractice	41324	n/a	n/a	27
548.6016666666667	0	n/a	329162	StartRest	XXXXX	n/a	n/a	27
558.6350000000000	0	n/a	335182	StopRest	XXXXX	n/a	n/a	27
558.6366666666667	0	UPPT001	335183	StartPractice	41324	n/a	n/a	28
559.2850000000001	0	n/a	335572	KeyDown	41324	4	Index	28
559.5333333333334	0	n/a	335721	KeyDown	41324	1	Little	28
559.8033333333334	0	n/a	335883	KeyDown	41324	3	Middle	28
560.0400000000001	0	n/a	336025	KeyDown	41324	2	Ring	28
560.3116666666667	0	n/a	336188	KeyDown	41324	4	Index	28
560.6133333333333	0	n/a	336369	KeyDown	41324	4	Index	28
560.8950000000000	0	n/a	336538	KeyDown	41324	1	Little	28
561.2250000000000	0	n/a	336736	KeyDown	41324	3	Middle	28
561.4683333333334	0	n/a	336882	KeyDown	41324	2	Ring	28
561.7516666666667	0	n/a	337052	KeyDown	41324	4	Index	28
562.0466666666667	0	n/a	337229	KeyDown	41324	4	Index	28
562.3133333333334	0	n/a	337389	KeyDown	41324	1	Little	28
562.5950000000000	0	n/a	337558	KeyDown	41324	4	Index	28
563.5783333333334	0	n/a	338148	KeyDown	41324	4	Index	28
563.8483333333334	0	n/a	338310	KeyDown	41324	1	Little	28
564.0833333333334	0	n/a	338451	KeyDown	41324	3	Middle	28
564.7600000000000	0	n/a	338857	KeyDown	41324	2	Ring	28
565.5183333333333	0	n/a	339312	KeyDown	41324	4	Index	28
565.8566666666667	0	n/a	339515	KeyDown	41324	4	Index	28
566.1466666666666	0	n/a	339689	KeyDown	41324	1	Little	28
567.1283333333333	0	n/a	340278	KeyDown	41324	3	Middle	28
567.3366666666667	0	n/a	340403	KeyDown	41324	2	Ring	28
567.5983333333334	0	n/a	340560	KeyDown	41324	4	Index	28
567.8883333333333	0	n/a	340734	KeyDown	41324	4	Index	28
568.2083333333334	0	n/a	340926	KeyDown	41324	1	Little	28
568.5683333333334	0	n/a	341142	KeyDown	41324	3	Middle	28
568.6750000000001	0	n/a	341206	StopPractice	41324	n/a	n/a	28
568.6766666666667	0	n/a	341207	StartRest	XXXXX	n/a	n/a	28
578.7100000000000	0	n/a	347227	StopRest	XXXXX	n/a	n/a	28
578.7116666666667	0	UPPT001	347228	StartPractice	41324	n/a	n/a	29
579.6116666666667	0	n/a	347768	KeyDown	41324	4	Index	29
579.9600000000000	0	n/a	347977	KeyDown	41324	1	Little	29
580.3133333333334	0	n/a	348189	KeyDown	41324	3	Middle	29
580.6033333333334	0	n/a	348363	KeyDown	41324	2	Ring	29
580.9400000000001	0	n/a	348565	KeyDown	41324	4	Index	29
581.3200000000001	0	n/a	348793	KeyDown	41324	4	Index	29
581.9583333333334	0	n/a	349176	KeyDown	41324	1	Little	29
582.3300000000000	0	n/a	349399	KeyDown	41324	3	Middle	29
582.5600000000001	0	n/a	349537	KeyDown	41324	2	Ring	29
582.8350000000000	0	n/a	349702	KeyDown	41324	4	Index	29
583.3866666666667	0	n/a	350033	KeyDown	41324	4	Index	29
583.7150000000000	0	n/a	350230	KeyDown	41324	1	Little	29
583.9633333333334	0	n/a	350379	KeyDown	41324	3	Middle	29
584.2016666666667	0	n/a	350522	KeyDown	41324	2	Ring	29
584.4766666666667	0	n/a	350687	KeyDown	41324	4	Index	29
584.7950000000001	0	n/a	350878	KeyDown	41324	4	Index	29
585.0866666666667	0	n/a	351053	KeyDown	41324	1	Little	29
585.3950000000000	0	n/a	351238	KeyDown	41324	3	Middle	29
585.6816666666667	0	n/a	351410	KeyDown	41324	2	Ring	29
586.0100000000000	0	n/a	351607	KeyDown	41324	4	Index	29
586.2916666666667	0	n/a	351776	KeyDown	41324	4	Index	29
586.6050000000000	0	n/a	351964	KeyDown	41324	1	Little	29
586.9350000000001	0	n/a	352162	KeyDown	41324	3	Middle	29
587.2300000000000	0	n/a	352339	KeyDown	41324	2	Ring	29
587.5700000000001	0	n/a	352543	KeyDown	41324	4	Index	29
587.9100000000001	0	n/a	352747	KeyDown	41324	4	Index	29
588.6316666666667	0	n/a	353180	KeyDown	41324	1	Little	29
588.7500000000000	0	n/a	353251	StopPractice	41324	n/a	n/a	29
588.7516666666667	0	n/a	353252	StartRest	XXXXX	n/a	n/a	29
598.7850000000001	0	n/a	359272	StopRest	XXXXX	n/a	n/a	29
598.7866666666667	0	UPPT001	359273	StartPractice	41324	n/a	n/a	30
599.6350000000000	0	n/a	359782	KeyDown	41324	4	Index	30
599.9200000000001	0	n/a	359953	KeyDown	41324	1	Little	30
600.1983333333334	0	n/a	360120	KeyDown	41324	3	Middle	30
600.4533333333334	0	n/a	360273	KeyDown	41324	2	Ring	30
600.7450000000000	0	n/a	360448	KeyDown	41324	4	Index	30
601.0933333333334	0	n/a	360657	KeyDown	41324	4	Index	30
601.4083333333334	0	n/a	360846	KeyDown	41324	1	Little	30
601.7233333333334	0	n/a	361035	KeyDown	41324	3	Middle	30
601.9650000000000	0	n/a	361180	KeyDown	41324	2	Ring	30
602.2483333333333	0	n/a	361350	KeyDown	41324	4	Index	30
602.6083333333333	0	n/a	361566	KeyDown	41324	4	Index	30
602.8883333333333	0	n/a	361734	KeyDown	41324	1	Little	30
603.2633333333333	0	n/a	361959	KeyDown	41324	3	Middle	30
603.5233333333334	0	n/a	362115	KeyDown	41324	2	Ring	30
603.8250000000000	0	n/a	362296	KeyDown	41324	4	Index	30
604.1566666666668	0	n/a	362495	KeyDown	41324	4	Index	30
604.4800000000000	0	n/a	362689	KeyDown	41324	1	Little	30
604.8283333333334	0	n/a	362898	KeyDown	41324	3	Middle	30
605.0733333333334	0	n/a	363045	KeyDown	41324	2	Ring	30
605.3600000000000	0	n/a	363217	KeyDown	41324	4	Index	30
606.0100000000000	0	n/a	363607	KeyDown	41324	4	Index	30
606.4300000000001	0	n/a	363859	KeyDown	41324	1	Little	30
606.6833333333334	0	n/a	364011	KeyDown	41324	3	Middle	30
606.9383333333334	0	n/a	364164	KeyDown	41324	2	Ring	30
607.2350000000000	0	n/a	364342	KeyDown	41324	4	Index	30
607.5600000000001	0	n/a	364537	KeyDown	41324	4	Index	30
607.9033333333334	0	n/a	364743	KeyDown	41324	1	Little	30
608.1850000000001	0	n/a	364912	KeyDown	41324	3	Middle	30
608.4533333333334	0	n/a	365073	KeyDown	41324	2	Ring	30
608.7616666666667	0	n/a	365258	KeyDown	41324	4	Index	30
608.8250000000000	0	n/a	365296	StopPractice	41324	n/a	n/a	30
608.8266666666667	0	n/a	365297	StartRest	XXXXX	n/a	n/a	30
618.8600000000000	0	n/a	371317	StopRest	XXXXX	n/a	n/a	30
618.8616666666667	0	UPPT001	371318	StartPractice	41324	n/a	n/a	31
619.6283333333333	0	n/a	371778	KeyDown	41324	4	Index	31
619.9466666666667	0	n/a	371969	KeyDown	41324	1	Little	31
620.1833333333334	0	n/a	372111	KeyDown	41324	3	Middle	31
620.4533333333334	0	n/a	372273	KeyDown	41324	2	Ring	31
620.7600000000000	0	n/a	372457	KeyDown	41324	4	Index	31
621.3050000000001	0	n/a	372784	KeyDown	41324	4	Index	31
621.8383333333334	0	n/a	373104	KeyDown	41324	1	Little	31
622.0750000000000	0	n/a	373246	KeyDown	41324	3	Middle	31
622.3200000000001	0	n/a	373393	KeyDown	41324	2	Ring	31
622.6050000000000	0	n/a	373564	KeyDown	41324	4	Index	31
622.9233333333334	0	n/a	373755	KeyDown	41324	4	Index	31
623.1883333333334	0	n/a	373914	KeyDown	41324	1	Little	31
623.4500000000000	0	n/a	374071	KeyDown	41324	3	Middle	31
623.7983333333334	0	n/a	374280	KeyDown	41324	2	Ring	31
624.1950000000001	0	n/a	374518	KeyDown	41324	4	Index	31
624.5983333333334	0	n/a	374760	KeyDown	41324	4	Index	31
625.0750000000000	0	n/a	375046	KeyDown	41324	1	Little	31
625.3333333333334	0	n/a	375201	KeyDown	41324	3	Middle	31
625.5766666666667	0	n/a	375347	KeyDown	41324	2	Ring	31
625.8616666666667	0	n/a	375518	KeyDown	41324	4	Index	31
626.1683333333334	0	n/a	375702	KeyDown	41324	4	Index	31
626.6933333333334	0	n/a	376017	KeyDown	41324	1	Little	31
626.9683333333334	0	n/a	376182	KeyDown	41324	3	Middle	31
627.2616666666667	0	n/a	376358	KeyDown	41324	2	Ring	31
627.6050000000000	0	n/a	376564	KeyDown	41324	4	Index	31
627.9400000000001	0	n/a	376765	KeyDown	41324	4	Index	31
628.2316666666667	0	n/a	376940	KeyDown	41324	1	Little	31
628.5350000000001	0	n/a	377122	KeyDown	41324	3	Middle	31
628.9000000000001	0	n/a	377341	StopPractice	41324	n/a	n/a	31
628.9016666666668	0	n/a	377342	StartRest	XXXXX	n/a	n/a	31
638.9350000000001	0	n/a	383362	StopRest	XXXXX	n/a	n/a	31
638.9366666666667	0	UPPT001	383363	StartPractice	41324	n/a	n/a	32
639.5333333333334	0	n/a	383721	KeyDown	41324	4	Index	32
639.8550000000000	0	n/a	383914	KeyDown	41324	1	Little	32
640.1116666666667	0	n/a	384068	KeyDown	41324	3	Middle	32
640.3733333333333	0	n/a	384225	KeyDown	41324	2	Ring	32
640.6733333333334	0	n/a	384405	KeyDown	41324	4	Index	32
640.7600000000000	0	n/a	384457	KeyDown	41324	3	Middle	32
641.1383333333333	0	n/a	384684	KeyDown	41324	4	Index	32
641.3800000000000	0	n/a	384829	KeyDown	41324	1	Little	32
641.6483333333334	0	n/a	384990	KeyDown	41324	3	Middle	32
641.8933333333334	0	n/a	385137	KeyDown	41324	2	Ring	32
642.1733333333334	0	n/a	385305	KeyDown	41324	4	Index	32
642.4933333333333	0	n/a	385497	KeyDown	41324	4	Index	32
642.7966666666667	0	n/a	385679	KeyDown	41324	1	Little	32
643.0650000000001	0	n/a	385840	KeyDown	41324	3	Middle	32
643.3250000000000	0	n/a	385996	KeyDown	41324	2	Ring	32
643.6250000000000	0	n/a	386176	KeyDown	41324	4	Index	32
643.9633333333334	0	n/a	386379	KeyDown	41324	4	Index	32
644.2650000000000	0	n/a	386560	KeyDown	41324	1	Little	32
644.5316666666668	0	n/a	386720	KeyDown	41324	3	Middle	32
644.7783333333334	0	n/a	386868	KeyDown	41324	2	Ring	32
645.0616666666667	0	n/a	387038	KeyDown	41324	4	Index	32
645.3683333333333	0	n/a	387222	KeyDown	41324	4	Index	32
645.6783333333334	0	n/a	387408	KeyDown	41324	1	Little	32
646.0133333333333	0	n/a	387609	KeyDown	41324	3	Middle	32
646.2550000000000	0	n/a	387754	KeyDown	41324	2	Ring	32
646.5366666666667	0	n/a	387923	KeyDown	41324	4	Index	32
646.8733333333333	0	n/a	388125	KeyDown	41324	4	Index	32
647.1716666666667	0	n/a	388304	KeyDown	41324	1	Little	32
647.4350000000001	0	n/a	388462	KeyDown	41324	4	Index	32
648.9750000000000	0	n/a	389386	StopPractice	41324	n/a	n/a	32
648.9766666666667	0	n/a	389387	StartRest	XXXXX	n/a	n/a	32
659.0100000000000	0	n/a	395407	StopRest	XXXXX	n/a	n/a	32
659.0116666666667	0	UPPT001	395408	StartPractice	41324	n/a	n/a	33
659.6983333333334	0	n/a	395820	KeyDown	41324	4	Index	33
659.9750000000000	0	n/a	395986	KeyDown	41324	1	Little	33
660.2150000000000	0	n/a	396130	KeyDown	41324	3	Middle	33
660.4516666666667	0	n/a	396272	KeyDown	41324	2	Ring	33
660.7233333333334	0	n/a	396435	KeyDown	41324	4	Index	33
661.0133333333333	0	n/a	396609	KeyDown	41324	4	Index	33
661.2800000000001	0	n/a	396769	KeyDown	41324	1	Little	33
661.5483333333334	0	n/a	396930	KeyDown	41324	3	Middle	33
661.8733333333333	0	n/a	397125	KeyDown	41324	2	Ring	33
662.2450000000000	0	n/a	397348	KeyDown	41324	4	Index	33
662.5583333333334	0	n/a	397536	KeyDown	41324	4	Index	33
662.8350000000000	0	n/a	397702	KeyDown	41324	1	Little	33
663.1583333333334	0	n/a	397896	KeyDown	41324	3	Middle	33
663.4133333333334	0	n/a	398049	KeyDown	41324	2	Ring	33
663.7083333333334	0	n/a	398226	KeyDown	41324	4	Index	33
663.9900000000000	0	n/a	398395	KeyDown	41324	4	Index	33
664.2916666666667	0	n/a	398576	KeyDown	41324	1	Little	33
664.6033333333334	0	n/a	398763	KeyDown	41324	3	Middle	33
664.8400000000000	0	n/a	398905	KeyDown	41324	2	Ring	33
665.1183333333333	0	n/a	399072	KeyDown	41324	4	Index	33
665.5900000000000	0	n/a	399355	KeyDown	41324	4	Index	33
665.9350000000001	0	n/a	399562	KeyDown	41324	1	Little	33
666.2150000000000	0	n/a	399730	KeyDown	41324	3	Middle	33
666.4633333333334	0	n/a	399879	KeyDown	41324	2	Ring	33
666.7516666666667	0	n/a	400052	KeyDown	41324	4	Index	33
667.0883333333334	0	n/a	400254	KeyDown	41324	4	Index	33
667.3650000000000	0	n/a	400420	KeyDown	41324	1	Little	33
667.6850000000001	0	n/a	400612	KeyDown	41324	3	Middle	33
667.9500000000000	0	n/a	400771	KeyDown	41324	2	Ring	33
668.2550000000000	0	n/a	400954	KeyDown	41324	4	Index	33
668.6250000000000	0	n/a	401176	KeyDown	41324	4	Index	33
669.0500000000001	0	n/a	401431	StopPractice	41324	n/a	n/a	33
669.0516666666667	0	n/a	401432	StartRest	XXXXX	n/a	n/a	33
679.0850000000000	0	n/a	407452	StopRest	XXXXX	n/a	n/a	33
679.0866666666667	0	UPPT001	407453	StartPractice	41324	n/a	n/a	34
679.7066666666667	0	n/a	407825	KeyDown	41324	4	Index	34
680.1200000000000	0	n/a	408073	KeyDown	41324	1	Little	34
680.4250000000001	0	n/a	408256	KeyDown	41324	3	Middle	34
680.6750000000001	0	n/a	408406	KeyDown	41324	2	Ring	34
680.9650000000000	0	n/a	408580	KeyDown	41324	4	Index	34
681.2433333333333	0	n/a	408747	KeyDown	41324	4	Index	34
681.4933333333333	0	n/a	408897	KeyDown	41324	1	Little	34
681.8200000000001	0	n/a	409093	KeyDown	41324	3	Middle	34
682.0933333333334	0	n/a	409257	KeyDown	41324	2	Ring	34
682.4050000000001	0	n/a	409444	KeyDown	41324	4	Index	34
682.7016666666667	0	n/a	409622	KeyDown	41324	4	Index	34
682.9950000000000	0	n/a	409798	KeyDown	41324	1	Little	34
683.2950000000001	0	n/a	409978	KeyDown	41324	3	Middle	34
683.5466666666667	0	n/a	410129	KeyDown	41324	2	Ring	34
683.8383333333334	0	n/a	410304	KeyDown	41324	4	Index	34
684.1200000000000	0	n/a	410473	KeyDown	41324	4	Index	34
684.4050000000001	0	n/a	410644	KeyDown	41324	1	Little	34
684.7500000000000	0	n/a	410851	KeyDown	41324	3	Middle	34
685.0450000000001	0	n/a	411028	KeyDown	41324	2	Ring	34
685.3833333333333	0	n/a	411231	KeyDown	41324	4	Index	34
685.6550000000001	0	n/a	411394	KeyDown	41324	4	Index	34
686.0366666666667	0	n/a	411623	KeyDown	41324	1	Little	34
686.6650000000001	0	n/a	412000	KeyDown	41324	3	Middle	34
686.8783333333333	0	n/a	412128	KeyDown	41324	2	Ring	34
687.1366666666667	0	n/a	412283	KeyDown	41324	4	Index	34
687.4000000000001	0	n/a	412441	KeyDown	41324	4	Index	34
687.7383333333333	0	n/a	412644	KeyDown	41324	1	Little	34
688.1600000000001	0	n/a	412897	KeyDown	41324	3	Middle	34
688.4166666666667	0	n/a	413051	KeyDown	41324	2	Ring	34
688.7166666666667	0	n/a	413231	KeyDown	41324	4	Index	34
688.9333333333334	0	n/a	413361	KeyDown	41324	4	Index	34
689.1250000000000	0	n/a	413476	StopPractice	41324	n/a	n/a	34
689.1266666666667	0	n/a	413477	StartRest	XXXXX	n/a	n/a	34
699.1600000000001	0	n/a	419497	StopRest	XXXXX	n/a	n/a	34
699.1616666666667	0	UPPT001	419498	StartPractice	41324	n/a	n/a	35
699.7516666666667	0	n/a	419852	KeyDown	41324	4	Index	35
700.3550000000000	0	n/a	420214	KeyDown	41324	1	Little	35
700.6816666666667	0	n/a	420410	KeyDown	41324	3	Middle	35
700.9266666666667	0	n/a	420557	KeyDown	41324	2	Ring	35
701.2183333333334	0	n/a	420732	KeyDown	41324	4	Index	35
701.5650000000001	0	n/a	420940	KeyDown	41324	4	Index	35
701.9983333333333	0	n/a	421200	KeyDown	41324	1	Little	35
702.2600000000000	0	n/a	421357	KeyDown	41324	3	Middle	35
702.4900000000000	0	n/a	421495	KeyDown	41324	2	Ring	35
702.7616666666667	0	n/a	421658	KeyDown	41324	4	Index	35
703.0833333333334	0	n/a	421851	KeyDown	41324	4	Index	35
703.4100000000001	0	n/a	422047	KeyDown	41324	1	Little	35
703.7033333333334	0	n/a	422223	KeyDown	41324	3	Middle	35
703.9716666666667	0	n/a	422384	KeyDown	41324	2	Ring	35
704.2816666666668	0	n/a	422570	KeyDown	41324	4	Index	35
704.5766666666667	0	n/a	422747	KeyDown	41324	4	Index	35
704.8983333333334	0	n/a	422940	KeyDown	41324	1	Little	35
705.2033333333334	0	n/a	423123	KeyDown	41324	3	Middle	35
705.4650000000000	0	n/a	423280	KeyDown	41324	2	Ring	35
705.7683333333334	0	n/a	423462	KeyDown	41324	4	Index	35
706.0533333333334	0	n/a	423633	KeyDown	41324	4	Index	35
706.4183333333334	0	n/a	423852	KeyDown	41324	1	Little	35
706.7650000000001	0	n/a	424060	KeyDown	41324	3	Middle	35
707.0583333333334	0	n/a	424236	KeyDown	41324	2	Ring	35
707.3983333333334	0	n/a	424440	KeyDown	41324	4	Index	35
707.7250000000000	0	n/a	424636	KeyDown	41324	4	Index	35
708.0600000000001	0	n/a	424837	KeyDown	41324	1	Little	35
708.4550000000000	0	n/a	425074	KeyDown	41324	3	Middle	35
708.7133333333334	0	n/a	425229	KeyDown	41324	2	Ring	35
709.0133333333334	0	n/a	425409	KeyDown	41324	4	Index	35
709.2000000000000	0	n/a	425521	StopPractice	41324	n/a	n/a	35
709.2016666666667	0	n/a	425522	StartRest	XXXXX	n/a	n/a	35
719.2333333333333	0	n/a	431541	StopRest	XXXXX	n/a	n/a	35
719.2350000000000	0	UPPT001	431542	StartPractice	41324	n/a	n/a	36
719.7950000000001	0	n/a	431878	KeyDown	41324	4	Index	36
720.0733333333334	0	n/a	432045	KeyDown	41324	1	Little	36
720.3633333333333	0	n/a	432219	KeyDown	41324	3	Middle	36
720.6183333333333	0	n/a	432372	KeyDown	41324	2	Ring	36
720.9133333333334	0	n/a	432549	KeyDown	41324	4	Index	36
721.1766666666667	0	n/a	432707	KeyDown	41324	4	Index	36
721.4716666666667	0	n/a	432884	KeyDown	41324	1	Little	36
721.7833333333334	0	n/a	433071	KeyDown	41324	3	Middle	36
722.0250000000001	0	n/a	433216	KeyDown	41324	2	Ring	36
722.3033333333334	0	n/a	433383	KeyDown	41324	4	Index	36
722.6466666666668	0	n/a	433589	KeyDown	41324	4	Index	36
722.9533333333334	0	n/a	433773	KeyDown	41324	1	Little	36
723.2516666666667	0	n/a	433952	KeyDown	41324	3	Middle	36
723.5200000000001	0	n/a	434113	KeyDown	41324	2	Ring	36
723.8316666666667	0	n/a	434300	KeyDown	41324	4	Index	36
724.1566666666668	0	n/a	434495	KeyDown	41324	4	Index	36
724.4500000000000	0	n/a	434671	KeyDown	41324	1	Little	36
724.8666666666667	0	n/a	434921	KeyDown	41324	3	Middle	36
725.1500000000001	0	n/a	435091	KeyDown	41324	2	Ring	36
725.4783333333334	0	n/a	435288	KeyDown	41324	4	Index	36
725.7833333333334	0	n/a	435471	KeyDown	41324	4	Index	36
726.0400000000001	0	n/a	435625	KeyDown	41324	1	Little	36
726.3900000000001	0	n/a	435835	KeyDown	41324	3	Middle	36
726.7116666666667	0	n/a	436028	KeyDown	41324	2	Ring	36
727.0783333333334	0	n/a	436248	KeyDown	41324	4	Index	36
728.2516666666667	0	n/a	436952	KeyDown	41324	4	Index	36
729.0483333333334	0	n/a	437430	KeyDown	41324	1	Little	36
729.2733333333334	0	n/a	437565	StopPractice	41324	n/a	n/a	36
729.2750000000001	0	n/a	437566	StartRest	XXXXX	n/a	n/a	36
739.3100000000001	0	n/a	443587	StopRest	XXXXX	n/a	n/a	36
