onset	duration	channel	onset_sample_idx	event_type	target_sequence	keypress_id	finger_label	trial_number
27.9900000000000	0	UPPT001	16795	StartPractice	41324	n/a	n/a	1
33.8700000000000	0	n/a	20323	KeyDown	41324	1	Little	1
34.2100000000000	0	n/a	20527	KeyDown	41324	4	Index	1
35.9316666666667	0	n/a	21560	KeyDown	41324	2	Ring	1
36.2416666666667	0	n/a	21746	KeyDown	41324	3	Middle	1
38.0283333333333	0	n/a	22818	StopPractice	41324	n/a	n/a	1
38.0300000000000	0	n/a	22819	StartRest	XXXXX	n/a	n/a	1
48.0516666666667	0	n/a	28832	StopRest	XXXXX	n/a	n/a	1
48.0533333333333	0	UPPT001	28833	StartPractice	41324	n/a	n/a	2
48.8716666666667	0	n/a	29324	KeyDown	41324	1	Little	2
49.4550000000000	0	n/a	29674	KeyDown	41324	4	Index	2
50.6766666666667	0	n/a	30407	KeyDown	41324	2	Ring	2
51.4233333333333	0	n/a	30855	KeyDown	41324	3	Middle	2
52.2650000000000	0	n/a	31360	KeyDown	41324	1	Little	2
54.2116666666667	0	n/a	32528	KeyDown	41324	1	Little	2
54.6650000000000	0	n/a	32800	KeyDown	41324	4	Index	2
56.2100000000000	0	n/a	33727	KeyDown	41324	2	Ring	2
57.1566666666667	0	n/a	34295	KeyDown	41324	3	Middle	2
57.8650000000000	0	n/a	34720	KeyDown	41324	1	Little	2
58.0916666666667	0	n/a	34856	StopPractice	41324	n/a	n/a	2
58.0933333333333	0	n/a	34857	StartRest	XXXXX	n/a	n/a	2
68.1266666666667	0	n/a	40877	StopRest	XXXXX	n/a	n/a	2
68.1283333333333	0	UPPT001	40878	StartPractice	41324	n/a	n/a	3
69.4750000000000	0	n/a	41686	KeyDown	41324	1	Little	3
69.8466666666667	0	n/a	41909	KeyDown	41324	4	Index	3
70.6400000000000	0	n/a	42385	KeyDown	41324	2	Ring	3
71.0783333333333	0	n/a	42648	KeyDown	41324	3	Middle	3
71.8400000000000	0	n/a	43105	KeyDown	41324	1	Little	3
72.8916666666667	0	n/a	43736	KeyDown	41324	1	Little	3
73.2550000000000	0	n/a	43954	KeyDown	41324	4	Index	3
73.8816666666667	0	n/a	44330	KeyDown	41324	2	Ring	3
74.2966666666667	0	n/a	44579	KeyDown	41324	3	Middle	3
74.7466666666667	0	n/a	44849	KeyDown	41324	1	Little	3
75.8416666666667	0	n/a	45506	KeyDown	41324	1	Little	3
76.4516666666667	0	n/a	45872	KeyDown	41324	4	Index	3
77.2066666666667	0	n/a	46325	KeyDown	41324	2	Ring	3
77.6266666666667	0	n/a	46577	KeyDown	41324	3	Middle	3
78.1666666666667	0	n/a	46901	StopPractice	41324	n/a	n/a	3
78.1683333333333	0	n/a	46902	StartRest	XXXXX	n/a	n/a	3
88.2016666666667	0	n/a	52922	StopRest	XXXXX	n/a	n/a	3
88.2033333333333	0	UPPT001	52923	StartPractice	41324	n/a	n/a	4
89.4766666666667	0	n/a	53687	KeyDown	41324	1	Little	4
90.2800000000000	0	n/a	54169	KeyDown	41324	4	Index	4
91.7400000000000	0	n/a	55045	KeyDown	41324	3	Middle	4
92.2183333333333	0	n/a	55332	KeyDown	41324	2	Ring	4
93.7533333333333	0	n/a	56253	KeyDown	41324	1	Little	4
94.2200000000000	0	n/a	56533	KeyDown	41324	1	Little	4
94.8366666666667	0	n/a	56903	KeyDown	41324	4	Index	4
95.5616666666667	0	n/a	57338	KeyDown	41324	2	Ring	4
95.8466666666667	0	n/a	57509	KeyDown	41324	3	Middle	4
96.1283333333333	0	n/a	57678	KeyDown	41324	1	Little	4
96.6316666666667	0	n/a	57980	KeyDown	41324	1	Little	4
96.9700000000000	0	n/a	58183	KeyDown	41324	4	Index	4
97.8033333333333	0	n/a	58683	KeyDown	41324	2	Ring	4
98.0016666666667	0	n/a	58802	KeyDown	41324	3	Middle	4
98.2116666666667	0	n/a	58928	KeyDown	41324	1	Little	4
98.2416666666667	0	n/a	58946	StopPractice	41324	n/a	n/a	4
98.2433333333333	0	n/a	58947	StartRest	XXXXX	n/a	n/a	4
108.2766666666667	0	n/a	64967	StopRest	XXXXX	n/a	n/a	4
108.2783333333333	0	UPPT001	64968	StartPractice	41324	n/a	n/a	5
110.7250000000000	0	n/a	66436	KeyDown	41324	4	Index	5
111.8766666666667	0	n/a	67127	KeyDown	41324	1	Little	5
113.0316666666667	0	n/a	67820	KeyDown	41324	3	Middle	5
113.8366666666667	0	n/a	68303	KeyDown	41324	2	Ring	5
114.3283333333333	0	n/a	68598	KeyDown	41324	4	Index	5
115.0916666666667	0	n/a	69056	KeyDown	41324	4	Index	5
115.8350000000000	0	n/a	69502	KeyDown	41324	1	Little	5
118.3166666666667	0	n/a	70991	StopPractice	41324	n/a	n/a	5
118.3183333333333	0	n/a	70992	StartRest	XXXXX	n/a	n/a	5
128.3500000000000	0	n/a	77011	StopRest	XXXXX	n/a	n/a	5
128.3516666666667	0	UPPT001	77012	StartPractice	41324	n/a	n/a	6
129.1350000000000	0	n/a	77482	KeyDown	41324	4	Index	6
129.5416666666667	0	n/a	77726	KeyDown	41324	1	Little	6
130.4050000000000	0	n/a	78244	KeyDown	41324	3	Middle	6
130.8950000000000	0	n/a	78538	KeyDown	41324	2	Ring	6
131.3466666666667	0	n/a	78809	KeyDown	41324	4	Index	6
132.6950000000000	0	n/a	79618	KeyDown	41324	4	Index	6
133.0416666666667	0	n/a	79826	KeyDown	41324	1	Little	6
134.1750000000000	0	n/a	80506	KeyDown	41324	3	Middle	6
134.5433333333334	0	n/a	80727	KeyDown	41324	2	Ring	6
134.8766666666667	0	n/a	80927	KeyDown	41324	4	Index	6
135.2550000000000	0	n/a	81154	KeyDown	41324	4	Index	6
135.5400000000000	0	n/a	81325	KeyDown	41324	1	Little	6
136.0216666666667	0	n/a	81614	KeyDown	41324	3	Middle	6
136.4233333333333	0	n/a	81855	KeyDown	41324	2	Ring	6
137.0300000000000	0	n/a	82219	KeyDown	41324	4	Index	6
138.3266666666667	0	n/a	82997	KeyDown	41324	4	Index	6
138.3900000000000	0	n/a	83035	StopPractice	41324	n/a	n/a	6
138.3916666666667	0	n/a	83036	StartRest	XXXXX	n/a	n/a	6
148.4266666666667	0	n/a	89057	StopRest	XXXXX	n/a	n/a	6
148.4283333333333	0	UPPT001	89058	StartPractice	41324	n/a	n/a	7
149.2050000000000	0	n/a	89524	KeyDown	41324	4	Index	7
149.7550000000000	0	n/a	89854	KeyDown	41324	1	Little	7
150.8716666666667	0	n/a	90524	KeyDown	41324	3	Middle	7
151.8533333333334	0	n/a	91113	KeyDown	41324	2	Ring	7
152.1400000000000	0	n/a	91285	KeyDown	41324	4	Index	7
153.0233333333333	0	n/a	91815	KeyDown	41324	4	Index	7
153.4650000000000	0	n/a	92080	KeyDown	41324	1	Little	7
153.8216666666667	0	n/a	92294	KeyDown	41324	3	Middle	7
154.1016666666667	0	n/a	92462	KeyDown	41324	2	Ring	7
154.8500000000000	0	n/a	92911	KeyDown	41324	4	Index	7
155.3966666666667	0	n/a	93239	KeyDown	41324	4	Index	7
155.7583333333334	0	n/a	93456	KeyDown	41324	1	Little	7
156.6166666666667	0	n/a	93971	KeyDown	41324	3	Middle	7
157.3250000000000	0	n/a	94396	KeyDown	41324	2	Ring	7
157.5666666666667	0	n/a	94541	KeyDown	41324	4	Index	7
158.0100000000000	0	n/a	94807	KeyDown	41324	4	Index	7
158.4666666666667	0	n/a	95081	StopPractice	41324	n/a	n/a	7
158.4683333333333	0	n/a	95082	StartRest	XXXXX	n/a	n/a	7
168.5016666666667	0	n/a	101102	StopRest	XXXXX	n/a	n/a	7
168.5033333333333	0	UPPT001	101103	StartPractice	41324	n/a	n/a	8
169.2666666666667	0	n/a	101561	KeyDown	41324	4	Index	8
169.7066666666667	0	n/a	101825	KeyDown	41324	1	Little	8
170.2600000000000	0	n/a	102157	KeyDown	41324	3	Middle	8
170.8266666666667	0	n/a	102497	KeyDown	41324	2	Ring	8
171.2616666666667	0	n/a	102758	KeyDown	41324	4	Index	8
172.1566666666667	0	n/a	103295	KeyDown	41324	4	Index	8
172.5816666666667	0	n/a	103550	KeyDown	41324	1	Little	8
172.8716666666667	0	n/a	103724	KeyDown	41324	3	Middle	8
173.1683333333334	0	n/a	103902	KeyDown	41324	2	Ring	8
173.4350000000000	0	n/a	104062	KeyDown	41324	4	Index	8
173.7783333333333	0	n/a	104268	KeyDown	41324	4	Index	8
174.1366666666667	0	n/a	104483	KeyDown	41324	3	Middle	8
175.2400000000000	0	n/a	105145	KeyDown	41324	4	Index	8
175.6266666666667	0	n/a	105377	KeyDown	41324	1	Little	8
175.9916666666667	0	n/a	105596	KeyDown	41324	3	Middle	8
176.2716666666667	0	n/a	105764	KeyDown	41324	2	Ring	8
176.5083333333334	0	n/a	105906	KeyDown	41324	4	Index	8
177.0300000000000	0	n/a	106219	KeyDown	41324	4	Index	8
177.2816666666667	0	n/a	106370	KeyDown	41324	1	Little	8
177.8350000000000	0	n/a	106702	KeyDown	41324	3	Middle	8
178.3983333333333	0	n/a	107040	KeyDown	41324	2	Ring	8
178.5416666666667	0	n/a	107126	StopPractice	41324	n/a	n/a	8
178.5433333333334	0	n/a	107127	StartRest	XXXXX	n/a	n/a	8
188.5750000000000	0	n/a	113146	StopRest	XXXXX	n/a	n/a	8
188.5766666666667	0	UPPT001	113147	StartPractice	41324	n/a	n/a	9
189.4016666666667	0	n/a	113642	KeyDown	41324	4	Index	9
189.7916666666667	0	n/a	113876	KeyDown	41324	1	Little	9
190.2550000000000	0	n/a	114154	KeyDown	41324	3	Middle	9
190.5466666666667	0	n/a	114329	KeyDown	41324	2	Ring	9
190.8000000000000	0	n/a	114481	KeyDown	41324	4	Index	9
191.4016666666667	0	n/a	114842	KeyDown	41324	4	Index	9
191.7266666666667	0	n/a	115037	KeyDown	41324	1	Little	9
192.0950000000000	0	n/a	115258	KeyDown	41324	3	Middle	9
192.3450000000000	0	n/a	115408	KeyDown	41324	2	Ring	9
192.6250000000000	0	n/a	115576	KeyDown	41324	4	Index	9
193.0983333333334	0	n/a	115860	KeyDown	41324	4	Index	9
193.3750000000000	0	n/a	116026	KeyDown	41324	3	Middle	9
194.4766666666667	0	n/a	116687	KeyDown	41324	4	Index	9
194.7483333333333	0	n/a	116850	KeyDown	41324	1	Little	9
195.1633333333334	0	n/a	117099	KeyDown	41324	3	Middle	9
195.3750000000000	0	n/a	117226	KeyDown	41324	2	Ring	9
195.6283333333334	0	n/a	117378	KeyDown	41324	4	Index	9
196.1633333333334	0	n/a	117699	KeyDown	41324	4	Index	9
196.4450000000000	0	n/a	117868	KeyDown	41324	1	Little	9
196.8000000000000	0	n/a	118081	KeyDown	41324	3	Middle	9
197.0250000000000	0	n/a	118216	KeyDown	41324	2	Ring	9
197.2350000000000	0	n/a	118342	KeyDown	41324	4	Index	9
197.7083333333333	0	n/a	118626	KeyDown	41324	4	Index	9
197.9533333333333	0	n/a	118773	KeyDown	41324	1	Little	9
198.2800000000000	0	n/a	118969	KeyDown	41324	3	Middle	9
198.5283333333333	0	n/a	119118	KeyDown	41324	2	Ring	9
198.6150000000000	0	n/a	119170	StopPractice	41324	n/a	n/a	9
198.6166666666667	0	n/a	119171	StartRest	XXXXX	n/a	n/a	9
208.6516666666667	0	n/a	125192	StopRest	XXXXX	n/a	n/a	9
208.6533333333333	0	UPPT001	125193	StartPractice	41324	n/a	n/a	10
209.2950000000000	0	n/a	125578	KeyDown	41324	4	Index	10
209.5216666666667	0	n/a	125714	KeyDown	41324	4	Index	10
210.1950000000000	0	n/a	126118	KeyDown	41324	4	Index	10
210.4933333333333	0	n/a	126297	KeyDown	41324	1	Little	10
211.0366666666667	0	n/a	126623	KeyDown	41324	3	Middle	10
211.2800000000000	0	n/a	126769	KeyDown	41324	2	Ring	10
211.5000000000000	0	n/a	126901	KeyDown	41324	4	Index	10
211.8683333333333	0	n/a	127122	KeyDown	41324	4	Index	10
212.2350000000000	0	n/a	127342	KeyDown	41324	1	Little	10
212.6200000000000	0	n/a	127573	KeyDown	41324	3	Middle	10
212.8616666666667	0	n/a	127718	KeyDown	41324	2	Ring	10
213.0283333333333	0	n/a	127818	KeyDown	41324	4	Index	10
213.4166666666667	0	n/a	128051	KeyDown	41324	4	Index	10
214.1716666666667	0	n/a	128504	KeyDown	41324	1	Little	10
214.5250000000000	0	n/a	128716	KeyDown	41324	3	Middle	10
214.7566666666667	0	n/a	128855	KeyDown	41324	2	Ring	10
214.9950000000000	0	n/a	128998	KeyDown	41324	4	Index	10
215.3450000000000	0	n/a	129208	KeyDown	41324	4	Index	10
215.6433333333333	0	n/a	129387	KeyDown	41324	1	Little	10
216.0633333333334	0	n/a	129639	KeyDown	41324	3	Middle	10
216.2833333333334	0	n/a	129771	KeyDown	41324	2	Ring	10
216.4533333333333	0	n/a	129873	KeyDown	41324	4	Index	10
216.8300000000000	0	n/a	130099	KeyDown	41324	4	Index	10
217.0816666666667	0	n/a	130250	KeyDown	41324	1	Little	10
217.5033333333334	0	n/a	130503	KeyDown	41324	3	Middle	10
217.6716666666667	0	n/a	130604	KeyDown	41324	2	Ring	10
217.8550000000000	0	n/a	130714	KeyDown	41324	4	Index	10
218.2466666666667	0	n/a	130949	KeyDown	41324	4	Index	10
218.5116666666667	0	n/a	131108	KeyDown	41324	1	Little	10
218.6916666666667	0	n/a	131216	StopPractice	41324	n/a	n/a	10
218.6933333333334	0	n/a	131217	StartRest	XXXXX	n/a	n/a	10
228.7250000000000	0	n/a	137236	StopRest	XXXXX	n/a	n/a	10
228.7266666666667	0	UPPT001	137237	StartPractice	41324	n/a	n/a	11
229.3300000000000	0	n/a	137599	KeyDown	41324	4	Index	11
229.5700000000000	0	n/a	137743	KeyDown	41324	4	Index	11
230.1833333333333	0	n/a	138111	KeyDown	41324	4	Index	11
230.4283333333333	0	n/a	138258	KeyDown	41324	1	Little	11
230.6750000000000	0	n/a	138406	KeyDown	41324	3	Middle	11
230.8766666666667	0	n/a	138527	KeyDown	41324	2	Ring	11
231.0583333333333	0	n/a	138636	KeyDown	41324	4	Index	11
231.3650000000000	0	n/a	138820	KeyDown	41324	4	Index	11
231.5633333333334	0	n/a	138939	KeyDown	41324	1	Little	11
231.8466666666667	0	n/a	139109	KeyDown	41324	3	Middle	11
232.0566666666667	0	n/a	139235	KeyDown	41324	2	Ring	11
232.2600000000000	0	n/a	139357	KeyDown	41324	4	Index	11
232.5916666666667	0	n/a	139556	KeyDown	41324	4	Index	11
232.8183333333334	0	n/a	139692	KeyDown	41324	1	Little	11
233.1633333333334	0	n/a	139899	KeyDown	41324	3	Middle	11
233.3950000000000	0	n/a	140038	KeyDown	41324	2	Ring	11
233.5766666666667	0	n/a	140147	KeyDown	41324	4	Index	11
233.9133333333334	0	n/a	140349	KeyDown	41324	4	Index	11
234.1433333333333	0	n/a	140487	KeyDown	41324	1	Little	11
234.4883333333333	0	n/a	140694	KeyDown	41324	3	Middle	11
234.6533333333333	0	n/a	140793	KeyDown	41324	2	Ring	11
234.8400000000000	0	n/a	140905	KeyDown	41324	4	Index	11
235.4250000000000	0	n/a	141256	KeyDown	41324	4	Index	11
235.9550000000000	0	n/a	141574	KeyDown	41324	1	Little	11
236.4950000000000	0	n/a	141898	KeyDown	41324	3	Middle	11
236.7116666666667	0	n/a	142028	KeyDown	41324	2	Ring	11
236.8883333333333	0	n/a	142134	KeyDown	41324	4	Index	11
237.2650000000000	0	n/a	142360	KeyDown	41324	4	Index	11
237.4500000000000	0	n/a	142471	KeyDown	41324	1	Little	11
237.7883333333334	0	n/a	142674	KeyDown	41324	3	Middle	11
237.9583333333333	0	n/a	142776	KeyDown	41324	2	Ring	11
238.1266666666667	0	n/a	142877	KeyDown	41324	4	Index	11
238.5100000000000	0	n/a	143107	KeyDown	41324	4	Index	11
238.7250000000000	0	n/a	143236	KeyDown	41324	1	Little	11
238.7650000000000	0	n/a	143260	StopPractice	41324	n/a	n/a	11
238.7666666666667	0	n/a	143261	StartRest	XXXXX	n/a	n/a	11
248.8000000000000	0	n/a	149281	StopRest	XXXXX	n/a	n/a	11
248.8016666666667	0	UPPT001	149282	StartPractice	41324	n/a	n/a	12
249.2283333333334	0	n/a	149538	KeyDown	41324	4	Index	12
249.4683333333334	0	n/a	149682	KeyDown	41324	1	Little	12
250.0683333333334	0	n/a	150042	KeyDown	41324	3	Middle	12
250.3283333333333	0	n/a	150198	KeyDown	41324	2	Ring	12
250.5966666666667	0	n/a	150359	KeyDown	41324	4	Index	12
251.1250000000000	0	n/a	150676	KeyDown	41324	4	Index	12
251.3750000000000	0	n/a	150826	KeyDown	41324	1	Little	12
251.7016666666667	0	n/a	151022	KeyDown	41324	3	Middle	12
251.9200000000000	0	n/a	151153	KeyDown	41324	2	Ring	12
252.1100000000000	0	n/a	151267	KeyDown	41324	4	Index	12
252.5783333333333	0	n/a	151548	KeyDown	41324	4	Index	12
252.9266666666667	0	n/a	151757	KeyDown	41324	1	Little	12
253.3583333333333	0	n/a	152016	KeyDown	41324	3	Middle	12
253.5283333333333	0	n/a	152118	KeyDown	41324	2	Ring	12
253.7500000000000	0	n/a	152251	KeyDown	41324	4	Index	12
254.1383333333333	0	n/a	152484	KeyDown	41324	4	Index	12
254.4616666666667	0	n/a	152678	KeyDown	41324	1	Little	12
255.0200000000000	0	n/a	153013	KeyDown	41324	3	Middle	12
255.2016666666667	0	n/a	153122	KeyDown	41324	2	Ring	12
255.4100000000000	0	n/a	153247	KeyDown	41324	4	Index	12
255.7550000000000	0	n/a	153454	KeyDown	41324	4	Index	12
255.9983333333334	0	n/a	153600	KeyDown	41324	1	Little	12
256.3200000000000	0	n/a	153793	KeyDown	41324	3	Middle	12
256.5166666666667	0	n/a	153911	KeyDown	41324	2	Ring	12
256.7300000000000	0	n/a	154039	KeyDown	41324	4	Index	12
257.0650000000000	0	n/a	154240	KeyDown	41324	4	Index	12
257.2983333333333	0	n/a	154380	KeyDown	41324	1	Little	12
257.6150000000000	0	n/a	154570	KeyDown	41324	3	Middle	12
257.8100000000000	0	n/a	154687	KeyDown	41324	2	Ring	12
257.9783333333334	0	n/a	154788	KeyDown	41324	4	Index	12
258.3450000000000	0	n/a	155008	KeyDown	41324	1	Little	12
258.8400000000000	0	n/a	155305	StopPractice	41324	n/a	n/a	12
258.8416666666667	0	n/a	155306	StartRest	XXXXX	n/a	n/a	12
268.8750000000000	0	n/a	161326	StopRest	XXXXX	n/a	n/a	12
268.8766666666667	0	UPPT001	161327	StartPractice	41324	n/a	n/a	13
269.2566666666667	0	n/a	161555	KeyDown	41324	4	Index	13
269.4750000000000	0	n/a	161686	KeyDown	41324	1	Little	13
269.8283333333334	0	n/a	161898	KeyDown	41324	3	Middle	13
270.0633333333333	0	n/a	162039	KeyDown	41324	2	Ring	13
270.3000000000000	0	n/a	162181	KeyDown	41324	4	Index	13
270.6083333333333	0	n/a	162366	KeyDown	41324	4	Index	13
270.8366666666667	0	n/a	162503	KeyDown	41324	1	Little	13
271.1900000000000	0	n/a	162715	KeyDown	41324	3	Middle	13
271.3933333333334	0	n/a	162837	KeyDown	41324	2	Ring	13
271.6083333333333	0	n/a	162966	KeyDown	41324	4	Index	13
271.9033333333334	0	n/a	163143	KeyDown	41324	4	Index	13
272.2000000000000	0	n/a	163321	KeyDown	41324	1	Little	13
272.8050000000000	0	n/a	163684	KeyDown	41324	3	Middle	13
273.0733333333333	0	n/a	163845	KeyDown	41324	2	Ring	13
273.2983333333333	0	n/a	163980	KeyDown	41324	4	Index	13
273.6816666666667	0	n/a	164210	KeyDown	41324	4	Index	13
274.0183333333334	0	n/a	164412	KeyDown	41324	1	Little	13
274.6883333333333	0	n/a	164814	KeyDown	41324	3	Middle	13
274.9450000000000	0	n/a	164968	KeyDown	41324	2	Ring	13
275.3783333333333	0	n/a	165228	KeyDown	41324	4	Index	13
275.8000000000000	0	n/a	165481	KeyDown	41324	4	Index	13
276.0283333333334	0	n/a	165618	KeyDown	41324	1	Little	13
276.3933333333334	0	n/a	165837	KeyDown	41324	3	Middle	13
276.6083333333333	0	n/a	165966	KeyDown	41324	2	Ring	13
276.8166666666667	0	n/a	166091	KeyDown	41324	4	Index	13
277.1766666666667	0	n/a	166307	KeyDown	41324	4	Index	13
277.7716666666667	0	n/a	166664	KeyDown	41324	2	Ring	13
278.6100000000000	0	n/a	167167	KeyDown	41324	3	Middle	13
278.8883333333334	0	n/a	167334	KeyDown	41324	2	Ring	13
278.9150000000000	0	n/a	167350	StopPractice	41324	n/a	n/a	13
278.9166666666667	0	n/a	167351	StartRest	XXXXX	n/a	n/a	13
288.9500000000000	0	n/a	173371	StopRest	XXXXX	n/a	n/a	13
288.9516666666667	0	UPPT001	173372	StartPractice	41324	n/a	n/a	14
289.5150000000000	0	n/a	173710	KeyDown	41324	4	Index	14
289.7750000000000	0	n/a	173866	KeyDown	41324	1	Little	14
290.0433333333334	0	n/a	174027	KeyDown	41324	3	Middle	14
290.2283333333334	0	n/a	174138	KeyDown	41324	2	Ring	14
290.4100000000000	0	n/a	174247	KeyDown	41324	4	Index	14
290.6133333333333	0	n/a	174369	KeyDown	41324	4	Index	14
291.1883333333333	0	n/a	174714	KeyDown	41324	1	Little	14
291.5616666666667	0	n/a	174938	KeyDown	41324	3	Middle	14
291.7433333333333	0	n/a	175047	KeyDown	41324	2	Ring	14
291.8966666666667	0	n/a	175139	KeyDown	41324	4	Index	14
292.3850000000000	0	n/a	175432	KeyDown	41324	4	Index	14
292.6750000000000	0	n/a	175606	KeyDown	41324	1	Little	14
293.5433333333334	0	n/a	176127	KeyDown	41324	3	Middle	14
293.7816666666667	0	n/a	176270	KeyDown	41324	2	Ring	14
294.0150000000000	0	n/a	176410	KeyDown	41324	4	Index	14
294.3800000000000	0	n/a	176629	KeyDown	41324	4	Index	14
294.5900000000000	0	n/a	176755	KeyDown	41324	1	Little	14
294.8916666666667	0	n/a	176936	KeyDown	41324	3	Middle	14
295.1433333333334	0	n/a	177087	KeyDown	41324	2	Ring	14
295.3400000000000	0	n/a	177205	KeyDown	41324	4	Index	14
295.7083333333334	0	n/a	177426	KeyDown	41324	4	Index	14
296.0000000000000	0	n/a	177601	KeyDown	41324	1	Little	14
296.3966666666667	0	n/a	177839	KeyDown	41324	2	Ring	14
297.0500000000000	0	n/a	178231	KeyDown	41324	4	Index	14
297.3583333333333	0	n/a	178416	KeyDown	41324	1	Little	14
297.6650000000000	0	n/a	178600	KeyDown	41324	3	Middle	14
297.8750000000000	0	n/a	178726	KeyDown	41324	2	Ring	14
298.0633333333333	0	n/a	178839	KeyDown	41324	4	Index	14
298.3850000000000	0	n/a	179032	KeyDown	41324	4	Index	14
298.6050000000000	0	n/a	179164	KeyDown	41324	1	Little	14
298.8733333333333	0	n/a	179325	KeyDown	41324	3	Middle	14
298.9900000000000	0	n/a	179395	StopPractice	41324	n/a	n/a	14
298.9916666666667	0	n/a	179396	StartRest	XXXXX	n/a	n/a	14
309.0250000000000	0	n/a	185416	StopRest	XXXXX	n/a	n/a	14
309.0266666666667	0	UPPT001	185417	StartPractice	41324	n/a	n/a	15
309.4783333333334	0	n/a	185688	KeyDown	41324	4	Index	15
309.6900000000000	0	n/a	185815	KeyDown	41324	1	Little	15
310.2116666666667	0	n/a	186128	KeyDown	41324	3	Middle	15
310.4250000000000	0	n/a	186256	KeyDown	41324	2	Ring	15
310.6183333333333	0	n/a	186372	KeyDown	41324	4	Index	15
311.3633333333333	0	n/a	186819	KeyDown	41324	4	Index	15
311.5866666666667	0	n/a	186953	KeyDown	41324	1	Little	15
311.9733333333334	0	n/a	187185	KeyDown	41324	3	Middle	15
312.2116666666667	0	n/a	187328	KeyDown	41324	2	Ring	15
312.3683333333333	0	n/a	187422	KeyDown	41324	4	Index	15
312.7383333333333	0	n/a	187644	KeyDown	41324	4	Index	15
312.9233333333333	0	n/a	187755	KeyDown	41324	1	Little	15
313.2150000000000	0	n/a	187930	KeyDown	41324	3	Middle	15
313.3883333333334	0	n/a	188034	KeyDown	41324	2	Ring	15
313.5450000000000	0	n/a	188128	KeyDown	41324	4	Index	15
313.8650000000000	0	n/a	188320	KeyDown	41324	4	Index	15
314.1250000000000	0	n/a	188476	KeyDown	41324	1	Little	15
314.5650000000000	0	n/a	188740	KeyDown	41324	3	Middle	15
314.7483333333333	0	n/a	188850	KeyDown	41324	2	Ring	15
314.8883333333334	0	n/a	188934	KeyDown	41324	4	Index	15
315.2383333333333	0	n/a	189144	KeyDown	41324	4	Index	15
315.5200000000000	0	n/a	189313	KeyDown	41324	1	Little	15
316.0400000000000	0	n/a	189625	KeyDown	41324	3	Middle	15
316.2733333333334	0	n/a	189765	KeyDown	41324	2	Ring	15
316.4083333333334	0	n/a	189846	KeyDown	41324	4	Index	15
316.8016666666667	0	n/a	190082	KeyDown	41324	4	Index	15
317.1666666666667	0	n/a	190301	KeyDown	41324	1	Little	15
317.5133333333334	0	n/a	190509	KeyDown	41324	3	Middle	15
317.6883333333333	0	n/a	190614	KeyDown	41324	2	Ring	15
317.8783333333333	0	n/a	190728	KeyDown	41324	4	Index	15
318.1933333333333	0	n/a	190917	KeyDown	41324	4	Index	15
318.5583333333333	0	n/a	191136	KeyDown	41324	1	Little	15
318.8183333333333	0	n/a	191292	KeyDown	41324	3	Middle	15
318.9966666666667	0	n/a	191399	KeyDown	41324	2	Ring	15
319.0650000000000	0	n/a	191440	StopPractice	41324	n/a	n/a	15
319.0666666666667	0	n/a	191441	StartRest	XXXXX	n/a	n/a	15
329.0983333333334	0	n/a	197460	StopRest	XXXXX	n/a	n/a	15
329.1000000000000	0	UPPT001	197461	StartPractice	41324	n/a	n/a	16
329.5016666666667	0	n/a	197702	KeyDown	41324	4	Index	16
329.7750000000000	0	n/a	197866	KeyDown	41324	1	Little	16
330.1066666666667	0	n/a	198065	KeyDown	41324	3	Middle	16
330.3033333333333	0	n/a	198183	KeyDown	41324	2	Ring	16
330.4883333333333	0	n/a	198294	KeyDown	41324	4	Index	16
330.8783333333333	0	n/a	198528	KeyDown	41324	4	Index	16
331.0983333333334	0	n/a	198660	KeyDown	41324	1	Little	16
331.3933333333334	0	n/a	198837	KeyDown	41324	3	Middle	16
331.6283333333333	0	n/a	198978	KeyDown	41324	2	Ring	16
331.7983333333333	0	n/a	199080	KeyDown	41324	4	Index	16
332.1066666666667	0	n/a	199265	KeyDown	41324	4	Index	16
332.3283333333334	0	n/a	199398	KeyDown	41324	1	Little	16
332.6466666666667	0	n/a	199589	KeyDown	41324	3	Middle	16
332.9816666666667	0	n/a	199790	KeyDown	41324	2	Ring	16
333.1633333333334	0	n/a	199899	KeyDown	41324	4	Index	16
333.4833333333333	0	n/a	200091	KeyDown	41324	4	Index	16
333.8200000000000	0	n/a	200293	KeyDown	41324	1	Little	16
334.1300000000000	0	n/a	200479	KeyDown	41324	3	Middle	16
334.3216666666667	0	n/a	200594	KeyDown	41324	2	Ring	16
334.4916666666667	0	n/a	200696	KeyDown	41324	4	Index	16
334.7933333333334	0	n/a	200877	KeyDown	41324	4	Index	16
335.0266666666667	0	n/a	201017	KeyDown	41324	1	Little	16
335.3066666666667	0	n/a	201185	KeyDown	41324	3	Middle	16
335.5366666666667	0	n/a	201323	KeyDown	41324	2	Ring	16
335.7566666666667	0	n/a	201455	KeyDown	41324	4	Index	16
336.1000000000000	0	n/a	201661	KeyDown	41324	4	Index	16
336.3616666666667	0	n/a	201818	KeyDown	41324	1	Little	16
337.2666666666667	0	n/a	202361	KeyDown	41324	3	Middle	16
337.6150000000000	0	n/a	202570	KeyDown	41324	2	Ring	16
338.0966666666667	0	n/a	202859	KeyDown	41324	4	Index	16
338.5416666666667	0	n/a	203126	KeyDown	41324	4	Index	16
338.7650000000000	0	n/a	203260	KeyDown	41324	1	Little	16
339.0866666666667	0	n/a	203453	KeyDown	41324	3	Middle	16
339.1383333333334	0	n/a	203484	StopPractice	41324	n/a	n/a	16
339.1400000000000	0	n/a	203485	StartRest	XXXXX	n/a	n/a	16
349.1750000000000	0	n/a	209506	StopRest	XXXXX	n/a	n/a	16
349.1766666666667	0	UPPT001	209507	StartPractice	41324	n/a	n/a	17
349.6183333333333	0	n/a	209772	KeyDown	41324	4	Index	17
349.8966666666667	0	n/a	209939	KeyDown	41324	1	Little	17
350.3033333333333	0	n/a	210183	KeyDown	41324	3	Middle	17
350.5216666666667	0	n/a	210314	KeyDown	41324	2	Ring	17
350.6783333333333	0	n/a	210408	KeyDown	41324	4	Index	17
350.9700000000000	0	n/a	210583	KeyDown	41324	4	Index	17
351.1750000000000	0	n/a	210706	KeyDown	41324	1	Little	17
351.5683333333333	0	n/a	210942	KeyDown	41324	3	Middle	17
351.7850000000000	0	n/a	211072	KeyDown	41324	2	Ring	17
351.9433333333333	0	n/a	211167	KeyDown	41324	4	Index	17
352.2900000000000	0	n/a	211375	KeyDown	41324	4	Index	17
352.5350000000000	0	n/a	211522	KeyDown	41324	1	Little	17
353.0350000000000	0	n/a	211822	KeyDown	41324	3	Middle	17
353.2100000000000	0	n/a	211927	KeyDown	41324	2	Ring	17
353.4433333333333	0	n/a	212067	KeyDown	41324	4	Index	17
353.8150000000000	0	n/a	212290	KeyDown	41324	4	Index	17
354.0533333333333	0	n/a	212433	KeyDown	41324	1	Little	17
354.4683333333334	0	n/a	212682	KeyDown	41324	3	Middle	17
354.6650000000000	0	n/a	212800	KeyDown	41324	2	Ring	17
354.8383333333334	0	n/a	212904	KeyDown	41324	4	Index	17
355.1833333333333	0	n/a	213111	KeyDown	41324	4	Index	17
355.3950000000000	0	n/a	213238	KeyDown	41324	1	Little	17
355.8650000000000	0	n/a	213520	KeyDown	41324	3	Middle	17
356.1050000000000	0	n/a	213664	KeyDown	41324	2	Ring	17
356.2933333333334	0	n/a	213777	KeyDown	41324	4	Index	17
356.9283333333333	0	n/a	214158	KeyDown	41324	4	Index	17
357.1833333333333	0	n/a	214311	KeyDown	41324	1	Little	17
357.6050000000000	0	n/a	214564	KeyDown	41324	3	Middle	17
357.8183333333333	0	n/a	214692	KeyDown	41324	2	Ring	17
358.0100000000000	0	n/a	214807	KeyDown	41324	4	Index	17
358.8100000000000	0	n/a	215287	KeyDown	41324	4	Index	17
359.0533333333333	0	n/a	215433	KeyDown	41324	1	Little	17
359.2150000000000	0	n/a	215530	StopPractice	41324	n/a	n/a	17
359.2166666666667	0	n/a	215531	StartRest	XXXXX	n/a	n/a	17
369.2500000000000	0	n/a	221551	StopRest	XXXXX	n/a	n/a	17
369.2516666666667	0	UPPT001	221552	StartPractice	41324	n/a	n/a	18
369.7716666666667	0	n/a	221864	KeyDown	41324	4	Index	18
369.9850000000000	0	n/a	221992	KeyDown	41324	1	Little	18
370.2233333333334	0	n/a	222135	KeyDown	41324	3	Middle	18
370.4450000000001	0	n/a	222268	KeyDown	41324	2	Ring	18
370.6033333333334	0	n/a	222363	KeyDown	41324	4	Index	18
370.8616666666667	0	n/a	222518	KeyDown	41324	4	Index	18
371.0833333333334	0	n/a	222651	KeyDown	41324	1	Little	18
371.3533333333334	0	n/a	222813	KeyDown	41324	3	Middle	18
371.5833333333334	0	n/a	222951	KeyDown	41324	2	Ring	18
371.7666666666667	0	n/a	223061	KeyDown	41324	4	Index	18
372.0700000000001	0	n/a	223243	KeyDown	41324	4	Index	18
372.3033333333333	0	n/a	223383	KeyDown	41324	1	Little	18
372.7483333333333	0	n/a	223650	KeyDown	41324	3	Middle	18
373.1500000000000	0	n/a	223891	KeyDown	41324	2	Ring	18
373.4250000000000	0	n/a	224056	KeyDown	41324	4	Index	18
373.8150000000000	0	n/a	224290	KeyDown	41324	4	Index	18
374.1366666666667	0	n/a	224483	KeyDown	41324	3	Middle	18
375.3733333333333	0	n/a	225225	KeyDown	41324	4	Index	18
375.6200000000000	0	n/a	225373	KeyDown	41324	1	Little	18
375.8783333333333	0	n/a	225528	KeyDown	41324	3	Middle	18
376.0633333333333	0	n/a	225639	KeyDown	41324	2	Ring	18
376.2050000000000	0	n/a	225724	KeyDown	41324	4	Index	18
376.5200000000000	0	n/a	225913	KeyDown	41324	4	Index	18
376.6950000000001	0	n/a	226018	KeyDown	41324	1	Little	18
377.0100000000000	0	n/a	226207	KeyDown	41324	3	Middle	18
377.2166666666667	0	n/a	226331	KeyDown	41324	2	Ring	18
377.3733333333333	0	n/a	226425	KeyDown	41324	4	Index	18
377.6966666666667	0	n/a	226619	KeyDown	41324	4	Index	18
378.0366666666667	0	n/a	226823	KeyDown	41324	1	Little	18
378.5933333333334	0	n/a	227157	KeyDown	41324	3	Middle	18
378.8166666666667	0	n/a	227291	KeyDown	41324	2	Ring	18
379.0433333333334	0	n/a	227427	KeyDown	41324	4	Index	18
379.2900000000000	0	n/a	227575	StopPractice	41324	n/a	n/a	18
379.2916666666667	0	n/a	227576	StartRest	XXXXX	n/a	n/a	18
389.3233333333334	0	n/a	233595	StopRest	XXXXX	n/a	n/a	18
389.3250000000000	0	UPPT001	233596	StartPractice	41324	n/a	n/a	19
389.8633333333333	0	n/a	233919	KeyDown	41324	4	Index	19
390.0450000000000	0	n/a	234028	KeyDown	41324	1	Little	19
390.3133333333333	0	n/a	234189	KeyDown	41324	3	Middle	19
390.5083333333334	0	n/a	234306	KeyDown	41324	2	Ring	19
390.6666666666667	0	n/a	234401	KeyDown	41324	4	Index	19
390.9283333333333	0	n/a	234558	KeyDown	41324	4	Index	19
391.1416666666667	0	n/a	234686	KeyDown	41324	1	Little	19
391.4416666666667	0	n/a	234866	KeyDown	41324	3	Middle	19
391.6333333333334	0	n/a	234981	KeyDown	41324	2	Ring	19
391.8083333333333	0	n/a	235086	KeyDown	41324	4	Index	19
392.1100000000000	0	n/a	235267	KeyDown	41324	4	Index	19
392.3966666666667	0	n/a	235439	KeyDown	41324	1	Little	19
392.7366666666667	0	n/a	235643	KeyDown	41324	3	Middle	19
392.9400000000000	0	n/a	235765	KeyDown	41324	2	Ring	19
393.1416666666667	0	n/a	235886	KeyDown	41324	4	Index	19
393.4400000000000	0	n/a	236065	KeyDown	41324	4	Index	19
393.6816666666667	0	n/a	236210	KeyDown	41324	1	Little	19
394.0533333333333	0	n/a	236433	KeyDown	41324	3	Middle	19
394.1916666666667	0	n/a	236516	KeyDown	41324	2	Ring	19
394.3666666666667	0	n/a	236621	KeyDown	41324	4	Index	19
394.7166666666667	0	n/a	236831	KeyDown	41324	4	Index	19
394.9250000000000	0	n/a	236956	KeyDown	41324	1	Little	19
395.4100000000000	0	n/a	237247	KeyDown	41324	3	Middle	19
395.6183333333333	0	n/a	237372	KeyDown	41324	2	Ring	19
395.7533333333334	0	n/a	237453	KeyDown	41324	4	Index	19
396.1000000000000	0	n/a	237661	KeyDown	41324	4	Index	19
396.3750000000000	0	n/a	237826	KeyDown	41324	1	Little	19
396.9850000000000	0	n/a	238192	KeyDown	41324	3	Middle	19
397.3683333333333	0	n/a	238422	KeyDown	41324	2	Ring	19
397.5816666666667	0	n/a	238550	KeyDown	41324	4	Index	19
398.3033333333333	0	n/a	238983	KeyDown	41324	4	Index	19
398.5966666666667	0	n/a	239159	KeyDown	41324	1	Little	19
398.9850000000000	0	n/a	239392	KeyDown	41324	3	Middle	19
399.2583333333334	0	n/a	239556	KeyDown	41324	2	Ring	19
399.3633333333333	0	n/a	239619	StopPractice	41324	n/a	n/a	19
399.3650000000000	0	n/a	239620	StartRest	XXXXX	n/a	n/a	19
409.4000000000000	0	n/a	245641	StopRest	XXXXX	n/a	n/a	19
409.4016666666667	0	UPPT001	245642	StartPractice	41324	n/a	n/a	20
409.9083333333334	0	n/a	245946	KeyDown	41324	4	Index	20
410.1666666666667	0	n/a	246101	KeyDown	41324	1	Little	20
410.5050000000001	0	n/a	246304	KeyDown	41324	3	Middle	20
410.6950000000001	0	n/a	246418	KeyDown	41324	2	Ring	20
410.8800000000001	0	n/a	246529	KeyDown	41324	4	Index	20
411.1733333333333	0	n/a	246705	KeyDown	41324	4	Index	20
411.4566666666667	0	n/a	246875	KeyDown	41324	1	Little	20
411.7600000000000	0	n/a	247057	KeyDown	41324	3	Middle	20
411.9750000000000	0	n/a	247186	KeyDown	41324	2	Ring	20
412.1583333333334	0	n/a	247296	KeyDown	41324	4	Index	20
412.4683333333334	0	n/a	247482	KeyDown	41324	4	Index	20
412.7350000000000	0	n/a	247642	KeyDown	41324	1	Little	20
413.2383333333333	0	n/a	247944	KeyDown	41324	3	Middle	20
413.4383333333333	0	n/a	248064	KeyDown	41324	2	Ring	20
413.6783333333333	0	n/a	248208	KeyDown	41324	4	Index	20
414.0550000000000	0	n/a	248434	KeyDown	41324	4	Index	20
414.3100000000000	0	n/a	248587	KeyDown	41324	1	Little	20
414.5683333333334	0	n/a	248742	KeyDown	41324	3	Middle	20
414.7883333333334	0	n/a	248874	KeyDown	41324	2	Ring	20
414.9983333333333	0	n/a	249000	KeyDown	41324	4	Index	20
415.3333333333334	0	n/a	249201	KeyDown	41324	4	Index	20
415.5950000000000	0	n/a	249358	KeyDown	41324	1	Little	20
415.9000000000000	0	n/a	249541	KeyDown	41324	3	Middle	20
416.0850000000000	0	n/a	249652	KeyDown	41324	2	Ring	20
416.2616666666667	0	n/a	249758	KeyDown	41324	4	Index	20
416.5650000000001	0	n/a	249940	KeyDown	41324	4	Index	20
416.7883333333334	0	n/a	250074	KeyDown	41324	1	Little	20
417.0700000000001	0	n/a	250243	KeyDown	41324	3	Middle	20
417.4316666666667	0	n/a	250460	KeyDown	41324	2	Ring	20
417.7216666666667	0	n/a	250634	KeyDown	41324	4	Index	20
419.2016666666667	0	n/a	251522	KeyDown	41324	4	Index	20
419.4066666666667	0	n/a	251645	KeyDown	41324	1	Little	20
419.4400000000001	0	n/a	251665	StopPractice	41324	n/a	n/a	20
419.4416666666667	0	n/a	251666	StartRest	XXXXX	n/a	n/a	20
429.4766666666667	0	n/a	257687	StopRest	XXXXX	n/a	n/a	20
429.4783333333334	0	UPPT001	257688	StartPractice	41324	n/a	n/a	21
429.8950000000000	0	n/a	257938	KeyDown	41324	4	Index	21
430.1716666666667	0	n/a	258104	KeyDown	41324	1	Little	21
430.4333333333333	0	n/a	258261	KeyDown	41324	3	Middle	21
430.6916666666667	0	n/a	258416	KeyDown	41324	2	Ring	21
430.8533333333334	0	n/a	258513	KeyDown	41324	4	Index	21
431.1350000000000	0	n/a	258682	KeyDown	41324	4	Index	21
431.3633333333333	0	n/a	258819	KeyDown	41324	1	Little	21
431.6316666666667	0	n/a	258980	KeyDown	41324	3	Middle	21
431.8566666666667	0	n/a	259115	KeyDown	41324	2	Ring	21
432.0200000000000	0	n/a	259213	KeyDown	41324	4	Index	21
432.3900000000000	0	n/a	259435	KeyDown	41324	4	Index	21
432.6550000000000	0	n/a	259594	KeyDown	41324	1	Little	21
432.9733333333334	0	n/a	259785	KeyDown	41324	3	Middle	21
433.2083333333334	0	n/a	259926	KeyDown	41324	2	Ring	21
433.3466666666667	0	n/a	260009	KeyDown	41324	4	Index	21
433.7083333333334	0	n/a	260226	KeyDown	41324	4	Index	21
433.9416666666667	0	n/a	260366	KeyDown	41324	1	Little	21
434.2066666666667	0	n/a	260525	KeyDown	41324	3	Middle	21
434.4050000000000	0	n/a	260644	KeyDown	41324	2	Ring	21
434.5716666666667	0	n/a	260744	KeyDown	41324	4	Index	21
434.9300000000000	0	n/a	260959	KeyDown	41324	4	Index	21
435.1866666666667	0	n/a	261113	KeyDown	41324	1	Little	21
435.4533333333334	0	n/a	261273	KeyDown	41324	3	Middle	21
435.6583333333334	0	n/a	261396	KeyDown	41324	2	Ring	21
435.8250000000000	0	n/a	261496	KeyDown	41324	4	Index	21
436.2816666666667	0	n/a	261770	KeyDown	41324	4	Index	21
436.4800000000000	0	n/a	261889	KeyDown	41324	1	Little	21
436.8283333333334	0	n/a	262098	KeyDown	41324	3	Middle	21
437.0833333333334	0	n/a	262251	KeyDown	41324	2	Ring	21
437.2150000000000	0	n/a	262330	KeyDown	41324	4	Index	21
437.5766666666667	0	n/a	262547	KeyDown	41324	4	Index	21
437.7666666666667	0	n/a	262661	KeyDown	41324	1	Little	21
438.0233333333334	0	n/a	262815	KeyDown	41324	3	Middle	21
438.2350000000000	0	n/a	262942	KeyDown	41324	2	Ring	21
438.3983333333334	0	n/a	263040	KeyDown	41324	4	Index	21
438.7050000000000	0	n/a	263224	KeyDown	41324	4	Index	21
439.0216666666667	0	n/a	263414	KeyDown	41324	1	Little	21
439.3133333333334	0	n/a	263589	KeyDown	41324	3	Middle	21
439.5166666666667	0	n/a	263711	StopPractice	41324	n/a	n/a	21
439.5183333333334	0	n/a	263712	StartRest	XXXXX	n/a	n/a	21
449.5483333333333	0	n/a	269730	StopRest	XXXXX	n/a	n/a	21
449.5500000000000	0	UPPT001	269731	StartPractice	41324	n/a	n/a	22
449.9600000000000	0	n/a	269977	KeyDown	41324	4	Index	22
450.2033333333334	0	n/a	270123	KeyDown	41324	1	Little	22
450.4116666666667	0	n/a	270248	KeyDown	41324	3	Middle	22
450.5983333333334	0	n/a	270360	KeyDown	41324	2	Ring	22
450.7683333333334	0	n/a	270462	KeyDown	41324	4	Index	22
451.0166666666667	0	n/a	270611	KeyDown	41324	4	Index	22
451.2033333333334	0	n/a	270723	KeyDown	41324	1	Little	22
451.4333333333333	0	n/a	270861	KeyDown	41324	3	Middle	22
451.6383333333334	0	n/a	270984	KeyDown	41324	2	Ring	22
451.7666666666667	0	n/a	271061	KeyDown	41324	4	Index	22
452.0516666666667	0	n/a	271232	KeyDown	41324	4	Index	22
452.2383333333333	0	n/a	271344	KeyDown	41324	1	Little	22
452.5666666666667	0	n/a	271541	KeyDown	41324	3	Middle	22
452.7550000000001	0	n/a	271654	KeyDown	41324	2	Ring	22
452.8750000000001	0	n/a	271726	KeyDown	41324	4	Index	22
453.1866666666667	0	n/a	271913	KeyDown	41324	4	Index	22
453.3800000000001	0	n/a	272029	KeyDown	41324	1	Little	22
453.6650000000000	0	n/a	272200	KeyDown	41324	3	Middle	22
453.9233333333333	0	n/a	272355	KeyDown	41324	2	Ring	22
454.0666666666667	0	n/a	272441	KeyDown	41324	4	Index	22
454.4150000000000	0	n/a	272650	KeyDown	41324	4	Index	22
454.6166666666667	0	n/a	272771	KeyDown	41324	1	Little	22
454.9116666666667	0	n/a	272948	KeyDown	41324	3	Middle	22
455.1766666666667	0	n/a	273107	KeyDown	41324	2	Ring	22
455.4133333333334	0	n/a	273249	KeyDown	41324	4	Index	22
455.7566666666667	0	n/a	273455	KeyDown	41324	4	Index	22
455.9750000000000	0	n/a	273586	KeyDown	41324	1	Little	22
456.2816666666667	0	n/a	273770	KeyDown	41324	3	Middle	22
456.5283333333334	0	n/a	273918	KeyDown	41324	2	Ring	22
456.6516666666667	0	n/a	273992	KeyDown	41324	4	Index	22
456.9500000000000	0	n/a	274171	KeyDown	41324	4	Index	22
457.2833333333334	0	n/a	274371	KeyDown	41324	1	Little	22
457.9233333333333	0	n/a	274755	KeyDown	41324	3	Middle	22
458.1333333333334	0	n/a	274881	KeyDown	41324	2	Ring	22
458.2750000000000	0	n/a	274966	KeyDown	41324	4	Index	22
458.6033333333334	0	n/a	275163	KeyDown	41324	4	Index	22
459.1733333333333	0	n/a	275505	KeyDown	41324	3	Middle	22
459.5883333333334	0	n/a	275754	StopPractice	41324	n/a	n/a	22
459.5900000000000	0	n/a	275755	StartRest	XXXXX	n/a	n/a	22
469.6233333333334	0	n/a	281775	StopRest	XXXXX	n/a	n/a	22
469.6250000000001	0	UPPT001	281776	StartPractice	41324	n/a	n/a	23
470.2283333333334	0	n/a	282138	KeyDown	41324	4	Index	23
470.5283333333334	0	n/a	282318	KeyDown	41324	1	Little	23
470.8733333333334	0	n/a	282525	KeyDown	41324	3	Middle	23
471.0766666666667	0	n/a	282647	KeyDown	41324	2	Ring	23
471.2716666666667	0	n/a	282764	KeyDown	41324	4	Index	23
471.5033333333334	0	n/a	282903	KeyDown	41324	4	Index	23
471.7066666666667	0	n/a	283025	KeyDown	41324	1	Little	23
472.0033333333334	0	n/a	283203	KeyDown	41324	3	Middle	23
472.5116666666667	0	n/a	283508	KeyDown	41324	2	Ring	23
472.7616666666667	0	n/a	283658	KeyDown	41324	4	Index	23
473.4416666666667	0	n/a	284066	KeyDown	41324	4	Index	23
473.9216666666667	0	n/a	284354	KeyDown	41324	1	Little	23
474.1983333333334	0	n/a	284520	KeyDown	41324	3	Middle	23
474.3933333333334	0	n/a	284637	KeyDown	41324	2	Ring	23
474.6083333333333	0	n/a	284766	KeyDown	41324	4	Index	23
474.8683333333333	0	n/a	284922	KeyDown	41324	4	Index	23
475.0050000000001	0	n/a	285004	KeyDown	41324	1	Little	23
475.2616666666667	0	n/a	285158	KeyDown	41324	3	Middle	23
475.4216666666667	0	n/a	285254	KeyDown	41324	2	Ring	23
475.5816666666667	0	n/a	285350	KeyDown	41324	4	Index	23
475.8400000000000	0	n/a	285505	KeyDown	41324	4	Index	23
476.0283333333334	0	n/a	285618	KeyDown	41324	1	Little	23
476.3583333333333	0	n/a	285816	KeyDown	41324	3	Middle	23
476.6050000000000	0	n/a	285964	KeyDown	41324	2	Ring	23
476.7550000000001	0	n/a	286054	KeyDown	41324	4	Index	23
477.0050000000001	0	n/a	286204	KeyDown	41324	4	Index	23
477.1966666666667	0	n/a	286319	KeyDown	41324	1	Little	23
477.4783333333334	0	n/a	286488	KeyDown	41324	3	Middle	23
477.6616666666667	0	n/a	286598	KeyDown	41324	2	Ring	23
477.7916666666667	0	n/a	286676	KeyDown	41324	4	Index	23
478.0783333333334	0	n/a	286848	KeyDown	41324	4	Index	23
478.2966666666667	0	n/a	286979	KeyDown	41324	1	Little	23
478.6583333333334	0	n/a	287196	KeyDown	41324	3	Middle	23
479.1183333333333	0	n/a	287472	KeyDown	41324	2	Ring	23
479.4533333333334	0	n/a	287673	KeyDown	41324	4	Index	23
479.6633333333334	0	n/a	287799	StopPractice	41324	n/a	n/a	23
479.6650000000000	0	n/a	287800	StartRest	XXXXX	n/a	n/a	23
489.6983333333334	0	n/a	293820	StopRest	XXXXX	n/a	n/a	23
489.7000000000000	0	UPPT001	293821	StartPractice	41324	n/a	n/a	24
490.2016666666667	0	n/a	294122	KeyDown	41324	4	Index	24
490.4083333333334	0	n/a	294246	KeyDown	41324	1	Little	24
490.7683333333334	0	n/a	294462	KeyDown	41324	3	Middle	24
491.0233333333334	0	n/a	294615	KeyDown	41324	2	Ring	24
491.2300000000000	0	n/a	294739	KeyDown	41324	4	Index	24
491.5166666666667	0	n/a	294911	KeyDown	41324	4	Index	24
491.7783333333334	0	n/a	295068	KeyDown	41324	1	Little	24
492.0600000000001	0	n/a	295237	KeyDown	41324	3	Middle	24
492.2133333333334	0	n/a	295329	KeyDown	41324	2	Ring	24
492.3716666666667	0	n/a	295424	KeyDown	41324	4	Index	24
492.6333333333334	0	n/a	295581	KeyDown	41324	4	Index	24
492.8016666666667	0	n/a	295682	KeyDown	41324	1	Little	24
493.2283333333334	0	n/a	295938	KeyDown	41324	3	Middle	24
493.3933333333334	0	n/a	296037	KeyDown	41324	2	Ring	24
493.5300000000000	0	n/a	296119	KeyDown	41324	4	Index	24
493.8183333333334	0	n/a	296292	KeyDown	41324	4	Index	24
494.1783333333333	0	n/a	296508	KeyDown	41324	1	Little	24
494.4250000000000	0	n/a	296656	KeyDown	41324	3	Middle	24
494.5950000000000	0	n/a	296758	KeyDown	41324	2	Ring	24
494.7433333333333	0	n/a	296847	KeyDown	41324	4	Index	24
494.9983333333334	0	n/a	297000	KeyDown	41324	4	Index	24
495.1700000000000	0	n/a	297103	KeyDown	41324	1	Little	24
495.4866666666667	0	n/a	297293	KeyDown	41324	3	Middle	24
495.6333333333334	0	n/a	297381	KeyDown	41324	2	Ring	24
495.8416666666667	0	n/a	297506	KeyDown	41324	4	Index	24
496.1766666666667	0	n/a	297707	KeyDown	41324	4	Index	24
496.3233333333334	0	n/a	297795	KeyDown	41324	1	Little	24
496.7883333333334	0	n/a	298074	KeyDown	41324	3	Middle	24
497.0133333333334	0	n/a	298209	KeyDown	41324	2	Ring	24
497.1633333333334	0	n/a	298299	KeyDown	41324	4	Index	24
497.4316666666667	0	n/a	298460	KeyDown	41324	4	Index	24
497.9233333333333	0	n/a	298755	KeyDown	41324	4	Index	24
498.2300000000000	0	n/a	298939	KeyDown	41324	1	Little	24
498.5766666666667	0	n/a	299147	KeyDown	41324	3	Middle	24
498.7150000000000	0	n/a	299230	KeyDown	41324	2	Ring	24
498.8533333333334	0	n/a	299313	KeyDown	41324	4	Index	24
499.1250000000001	0	n/a	299476	KeyDown	41324	4	Index	24
499.3266666666667	0	n/a	299597	KeyDown	41324	1	Little	24
499.5700000000001	0	n/a	299743	KeyDown	41324	3	Middle	24
499.7383333333333	0	n/a	299844	StopPractice	41324	n/a	n/a	24
499.7400000000000	0	n/a	299845	StartRest	XXXXX	n/a	n/a	24
509.7733333333334	0	n/a	305865	StopRest	XXXXX	n/a	n/a	24
509.7750000000000	0	UPPT001	305866	StartPractice	41324	n/a	n/a	25
510.3316666666667	0	n/a	306200	KeyDown	41324	4	Index	25
510.5433333333334	0	n/a	306327	KeyDown	41324	1	Little	25
510.7716666666667	0	n/a	306464	KeyDown	41324	3	Middle	25
510.9550000000000	0	n/a	306574	KeyDown	41324	2	Ring	25
511.0816666666667	0	n/a	306650	KeyDown	41324	4	Index	25
511.3216666666667	0	n/a	306794	KeyDown	41324	4	Index	25
511.4933333333333	0	n/a	306897	KeyDown	41324	1	Little	25
511.7433333333333	0	n/a	307047	KeyDown	41324	3	Middle	25
511.9016666666667	0	n/a	307142	KeyDown	41324	2	Ring	25
512.0383333333334	0	n/a	307224	KeyDown	41324	4	Index	25
512.2650000000000	0	n/a	307360	KeyDown	41324	4	Index	25
512.5250000000000	0	n/a	307516	KeyDown	41324	1	Little	25
512.7533333333333	0	n/a	307653	KeyDown	41324	3	Middle	25
513.1766666666667	0	n/a	307907	KeyDown	41324	2	Ring	25
513.4033333333334	0	n/a	308043	KeyDown	41324	4	Index	25
513.9883333333333	0	n/a	308394	KeyDown	41324	4	Index	25
514.2016666666667	0	n/a	308522	KeyDown	41324	1	Little	25
514.5533333333334	0	n/a	308733	KeyDown	41324	3	Middle	25
514.7100000000000	0	n/a	308827	KeyDown	41324	2	Ring	25
514.8366666666667	0	n/a	308903	KeyDown	41324	4	Index	25
515.1283333333333	0	n/a	309078	KeyDown	41324	4	Index	25
515.3766666666667	0	n/a	309227	KeyDown	41324	1	Little	25
515.7633333333333	0	n/a	309459	KeyDown	41324	3	Middle	25
515.9583333333334	0	n/a	309576	KeyDown	41324	2	Ring	25
516.1083333333333	0	n/a	309666	KeyDown	41324	4	Index	25
516.4216666666667	0	n/a	309854	KeyDown	41324	4	Index	25
516.6216666666667	0	n/a	309974	KeyDown	41324	1	Little	25
516.9066666666668	0	n/a	310145	KeyDown	41324	3	Middle	25
517.0700000000001	0	n/a	310243	KeyDown	41324	2	Ring	25
517.2233333333334	0	n/a	310335	KeyDown	41324	4	Index	25
517.4800000000000	0	n/a	310489	KeyDown	41324	4	Index	25
517.7083333333334	0	n/a	310626	KeyDown	41324	1	Little	25
518.0650000000001	0	n/a	310840	KeyDown	41324	3	Middle	25
518.2033333333334	0	n/a	310923	KeyDown	41324	2	Ring	25
518.3100000000001	0	n/a	310987	KeyDown	41324	4	Index	25
518.6216666666667	0	n/a	311174	KeyDown	41324	4	Index	25
518.8250000000000	0	n/a	311296	KeyDown	41324	1	Little	25
519.1916666666667	0	n/a	311516	KeyDown	41324	3	Middle	25
519.3733333333333	0	n/a	311625	KeyDown	41324	2	Ring	25
519.4916666666667	0	n/a	311696	KeyDown	41324	4	Index	25
519.7683333333333	0	n/a	311862	KeyDown	41324	4	Index	25
519.8133333333334	0	n/a	311889	StopPractice	41324	n/a	n/a	25
519.8150000000001	0	n/a	311890	StartRest	XXXXX	n/a	n/a	25
529.8466666666667	0	n/a	317909	StopRest	XXXXX	n/a	n/a	25
529.8483333333334	0	UPPT001	317910	StartPractice	41324	n/a	n/a	26
530.2766666666668	0	n/a	318167	KeyDown	41324	4	Index	26
530.5550000000001	0	n/a	318334	KeyDown	41324	1	Little	26
530.7933333333334	0	n/a	318477	KeyDown	41324	3	Middle	26
530.9533333333334	0	n/a	318573	KeyDown	41324	2	Ring	26
531.0850000000000	0	n/a	318652	KeyDown	41324	4	Index	26
531.3550000000000	0	n/a	318814	KeyDown	41324	4	Index	26
531.6050000000000	0	n/a	318964	KeyDown	41324	1	Little	26
531.8883333333333	0	n/a	319134	KeyDown	41324	3	Middle	26
532.1000000000000	0	n/a	319261	KeyDown	41324	2	Ring	26
532.2166666666667	0	n/a	319331	KeyDown	41324	4	Index	26
532.4816666666667	0	n/a	319490	KeyDown	41324	4	Index	26
532.6916666666667	0	n/a	319616	KeyDown	41324	1	Little	26
533.0516666666667	0	n/a	319832	KeyDown	41324	3	Middle	26
533.1966666666667	0	n/a	319919	KeyDown	41324	2	Ring	26
533.3066666666667	0	n/a	319985	KeyDown	41324	4	Index	26
533.5783333333334	0	n/a	320148	KeyDown	41324	4	Index	26
533.8016666666667	0	n/a	320282	KeyDown	41324	1	Little	26
534.2066666666667	0	n/a	320525	KeyDown	41324	3	Middle	26
534.3383333333334	0	n/a	320604	KeyDown	41324	2	Ring	26
534.4750000000000	0	n/a	320686	KeyDown	41324	4	Index	26
534.7383333333333	0	n/a	320844	KeyDown	41324	4	Index	26
535.0350000000001	0	n/a	321022	KeyDown	41324	1	Little	26
535.2450000000000	0	n/a	321148	KeyDown	41324	3	Middle	26
535.4300000000001	0	n/a	321259	KeyDown	41324	2	Ring	26
535.5266666666668	0	n/a	321317	KeyDown	41324	4	Index	26
535.8500000000000	0	n/a	321511	KeyDown	41324	4	Index	26
535.9983333333333	0	n/a	321600	KeyDown	41324	1	Little	26
536.4350000000001	0	n/a	321862	KeyDown	41324	3	Middle	26
536.6366666666667	0	n/a	321983	KeyDown	41324	2	Ring	26
536.7750000000001	0	n/a	322066	KeyDown	41324	4	Index	26
537.0533333333334	0	n/a	322233	KeyDown	41324	4	Index	26
537.4583333333334	0	n/a	322476	KeyDown	41324	1	Little	26
537.7633333333333	0	n/a	322659	KeyDown	41324	3	Middle	26
537.9666666666667	0	n/a	322781	KeyDown	41324	2	Ring	26
538.0650000000001	0	n/a	322840	KeyDown	41324	4	Index	26
538.3950000000000	0	n/a	323038	KeyDown	41324	4	Index	26
538.6616666666667	0	n/a	323198	KeyDown	41324	1	Little	26
539.1116666666667	0	n/a	323468	KeyDown	41324	2	Ring	26
539.2350000000000	0	n/a	323542	KeyDown	41324	4	Index	26
539.5683333333334	0	n/a	323742	KeyDown	41324	4	Index	26
539.8866666666667	0	n/a	323933	StopPractice	41324	n/a	n/a	26
539.8883333333333	0	n/a	323934	StartRest	XXXXX	n/a	n/a	26
549.9233333333334	0	n/a	329955	StopRest	XXXXX	n/a	n/a	26
549.9250000000001	0	UPPT001	329956	StartPractice	41324	n/a	n/a	27
550.3516666666667	0	n/a	330212	KeyDown	41324	4	Index	27
550.5866666666667	0	n/a	330353	KeyDown	41324	1	Little	27
550.7716666666666	0	n/a	330464	KeyDown	41324	3	Middle	27
550.9566666666667	0	n/a	330575	KeyDown	41324	2	Ring	27
551.1183333333333	0	n/a	330672	KeyDown	41324	4	Index	27
551.3733333333333	0	n/a	330825	KeyDown	41324	4	Index	27
551.5450000000001	0	n/a	330928	KeyDown	41324	1	Little	27
551.7833333333334	0	n/a	331071	KeyDown	41324	3	Middle	27
551.9616666666667	0	n/a	331178	KeyDown	41324	2	Ring	27
552.0950000000000	0	n/a	331258	KeyDown	41324	4	Index	27
552.3566666666667	0	n/a	331415	KeyDown	41324	4	Index	27
552.5433333333334	0	n/a	331527	KeyDown	41324	1	Little	27
552.7633333333333	0	n/a	331659	KeyDown	41324	3	Middle	27
552.9616666666667	0	n/a	331778	KeyDown	41324	2	Ring	27
553.0883333333334	0	n/a	331854	KeyDown	41324	4	Index	27
553.3416666666667	0	n/a	332006	KeyDown	41324	4	Index	27
553.5283333333334	0	n/a	332118	KeyDown	41324	1	Little	27
553.7533333333333	0	n/a	332253	KeyDown	41324	3	Middle	27
553.9766666666667	0	n/a	332387	KeyDown	41324	2	Ring	27
554.0666666666667	0	n/a	332441	KeyDown	41324	4	Index	27
554.3366666666667	0	n/a	332603	KeyDown	41324	4	Index	27
554.5716666666667	0	n/a	332744	KeyDown	41324	1	Little	27
554.9300000000001	0	n/a	332959	KeyDown	41324	3	Middle	27
555.1166666666667	0	n/a	333071	KeyDown	41324	2	Ring	27
555.2050000000000	0	n/a	333124	KeyDown	41324	4	Index	27
555.4666666666667	0	n/a	333281	KeyDown	41324	4	Index	27
555.6816666666667	0	n/a	333410	KeyDown	41324	1	Little	27
555.9016666666668	0	n/a	333542	KeyDown	41324	3	Middle	27
556.1483333333334	0	n/a	333690	KeyDown	41324	2	Ring	27
556.2516666666667	0	n/a	333752	KeyDown	41324	4	Index	27
556.4833333333333	0	n/a	333891	KeyDown	41324	4	Index	27
556.6483333333334	0	n/a	333990	KeyDown	41324	1	Little	27
556.9733333333334	0	n/a	334185	KeyDown	41324	3	Middle	27
557.1516666666668	0	n/a	334292	KeyDown	41324	2	Ring	27
557.2633333333333	0	n/a	334359	KeyDown	41324	4	Index	27
557.5550000000001	0	n/a	334534	KeyDown	41324	4	Index	27
557.7266666666667	0	n/a	334637	KeyDown	41324	1	Little	27
558.0833333333334	0	n/a	334851	KeyDown	41324	3	Middle	27
558.2733333333334	0	n/a	334965	KeyDown	41324	2	Ring	27
558.3600000000000	0	n/a	335017	KeyDown	41324	4	Index	27
558.6516666666668	0	n/a	335192	KeyDown	41324	4	Index	27
558.8000000000001	0	n/a	335281	KeyDown	41324	1	Little	27
559.0433333333334	0	n/a	335427	KeyDown	41324	3	Middle	27
559.2133333333334	0	n/a	335529	KeyDown	41324	2	Ring	27
559.3100000000001	0	n/a	335587	KeyDown	41324	4	Index	27
559.6083333333333	0	n/a	335766	KeyDown	41324	4	Index	27
559.8733333333333	0	n/a	335925	KeyDown	41324	2	Ring	27
559.9633333333334	0	n/a	335979	StopPractice	41324	n/a	n/a	27
559.9650000000000	0	n/a	335980	StartRest	XXXXX	n/a	n/a	27
570.0150000000000	0	n/a	342010	StopRest	XXXXX	n/a	n/a	27
570.0166666666667	0	UPPT001	342011	StartPractice	41324	n/a	n/a	28
570.3850000000000	0	n/a	342232	KeyDown	41324	4	Index	28
570.5733333333334	0	n/a	342345	KeyDown	41324	1	Little	28
570.7650000000000	0	n/a	342460	KeyDown	41324	3	Middle	28
571.1716666666667	0	n/a	342704	KeyDown	41324	2	Ring	28
571.3283333333334	0	n/a	342798	KeyDown	41324	4	Index	28
571.6550000000001	0	n/a	342994	KeyDown	41324	4	Index	28
571.9683333333334	0	n/a	343182	KeyDown	41324	1	Little	28
572.1650000000001	0	n/a	343300	KeyDown	41324	3	Middle	28
572.3450000000000	0	n/a	343408	KeyDown	41324	2	Ring	28
572.5150000000000	0	n/a	343510	KeyDown	41324	4	Index	28
572.7500000000000	0	n/a	343651	KeyDown	41324	4	Index	28
572.9100000000001	0	n/a	343747	KeyDown	41324	1	Little	28
573.2183333333334	0	n/a	343932	KeyDown	41324	3	Middle	28
573.3866666666667	0	n/a	344033	KeyDown	41324	2	Ring	28
573.5250000000001	0	n/a	344116	KeyDown	41324	4	Index	28
573.7483333333333	0	n/a	344250	KeyDown	41324	4	Index	28
573.9200000000001	0	n/a	344353	KeyDown	41324	1	Little	28
574.1283333333333	0	n/a	344478	KeyDown	41324	3	Middle	28
574.3016666666667	0	n/a	344582	KeyDown	41324	2	Ring	28
574.4550000000000	0	n/a	344674	KeyDown	41324	4	Index	28
574.6483333333334	0	n/a	344790	KeyDown	41324	4	Index	28
574.8233333333334	0	n/a	344895	KeyDown	41324	1	Little	28
575.1833333333334	0	n/a	345111	KeyDown	41324	3	Middle	28
575.3366666666667	0	n/a	345203	KeyDown	41324	2	Ring	28
575.4516666666667	0	n/a	345272	KeyDown	41324	4	Index	28
575.7300000000000	0	n/a	345439	KeyDown	41324	4	Index	28
575.9966666666667	0	n/a	345599	KeyDown	41324	1	Little	28
576.2650000000000	0	n/a	345760	KeyDown	41324	3	Middle	28
576.5183333333333	0	n/a	345912	KeyDown	41324	2	Ring	28
576.6300000000000	0	n/a	345979	KeyDown	41324	4	Index	28
576.9050000000001	0	n/a	346144	KeyDown	41324	4	Index	28
577.1350000000000	0	n/a	346282	KeyDown	41324	1	Little	28
578.1000000000000	0	n/a	346861	KeyDown	41324	3	Middle	28
578.2800000000001	0	n/a	346969	KeyDown	41324	2	Ring	28
578.4050000000001	0	n/a	347044	KeyDown	41324	4	Index	28
578.6533333333334	0	n/a	347193	KeyDown	41324	4	Index	28
578.8266666666667	0	n/a	347297	KeyDown	41324	1	Little	28
579.0650000000001	0	n/a	347440	KeyDown	41324	3	Middle	28
579.2900000000001	0	n/a	347575	KeyDown	41324	2	Ring	28
579.3850000000000	0	n/a	347632	KeyDown	41324	4	Index	28
579.6600000000001	0	n/a	347797	KeyDown	41324	4	Index	28
579.8133333333334	0	n/a	347889	KeyDown	41324	1	Little	28
580.0550000000001	0	n/a	348034	StopPractice	41324	n/a	n/a	28
580.0566666666667	0	n/a	348035	StartRest	XXXXX	n/a	n/a	28
590.0883333333334	0	n/a	354054	StopRest	XXXXX	n/a	n/a	28
590.0900000000000	0	UPPT001	354055	StartPractice	41324	n/a	n/a	29
590.5983333333334	0	n/a	354360	KeyDown	41324	4	Index	29
590.7866666666667	0	n/a	354473	KeyDown	41324	1	Little	29
590.9683333333334	0	n/a	354582	KeyDown	41324	3	Middle	29
591.1633333333334	0	n/a	354699	KeyDown	41324	3	Middle	29
591.2300000000000	0	n/a	354739	KeyDown	41324	2	Ring	29
591.5433333333334	0	n/a	354927	KeyDown	41324	4	Index	29
591.7250000000000	0	n/a	355036	KeyDown	41324	4	Index	29
591.8983333333334	0	n/a	355140	KeyDown	41324	1	Little	29
592.2316666666667	0	n/a	355340	KeyDown	41324	3	Middle	29
592.3766666666667	0	n/a	355427	KeyDown	41324	2	Ring	29
592.4633333333334	0	n/a	355479	KeyDown	41324	4	Index	29
592.7216666666667	0	n/a	355634	KeyDown	41324	4	Index	29
592.8850000000000	0	n/a	355732	KeyDown	41324	1	Little	29
593.2883333333334	0	n/a	355974	KeyDown	41324	3	Middle	29
593.4133333333334	0	n/a	356049	KeyDown	41324	2	Ring	29
593.4883333333333	0	n/a	356094	KeyDown	41324	4	Index	29
593.8116666666667	0	n/a	356288	KeyDown	41324	4	Index	29
594.0166666666667	0	n/a	356411	KeyDown	41324	1	Little	29
594.6350000000000	0	n/a	356782	KeyDown	41324	3	Middle	29
594.7516666666667	0	n/a	356852	KeyDown	41324	2	Ring	29
594.8566666666667	0	n/a	356915	KeyDown	41324	4	Index	29
595.1133333333333	0	n/a	357069	KeyDown	41324	4	Index	29
595.3733333333333	0	n/a	357225	KeyDown	41324	1	Little	29
595.6366666666667	0	n/a	357383	KeyDown	41324	3	Middle	29
595.9366666666667	0	n/a	357563	KeyDown	41324	2	Ring	29
596.0450000000001	0	n/a	357628	KeyDown	41324	4	Index	29
596.3566666666667	0	n/a	357815	KeyDown	41324	4	Index	29
596.5550000000001	0	n/a	357934	KeyDown	41324	1	Little	29
596.9716666666667	0	n/a	358184	KeyDown	41324	3	Middle	29
597.3533333333334	0	n/a	358413	KeyDown	41324	2	Ring	29
597.4966666666667	0	n/a	358499	KeyDown	41324	4	Index	29
597.8883333333333	0	n/a	358734	KeyDown	41324	4	Index	29
598.3833333333333	0	n/a	359031	KeyDown	41324	1	Little	29
598.7183333333334	0	n/a	359232	KeyDown	41324	3	Middle	29
598.9350000000001	0	n/a	359362	KeyDown	41324	2	Ring	29
599.0883333333334	0	n/a	359454	KeyDown	41324	4	Index	29
599.3933333333333	0	n/a	359637	KeyDown	41324	4	Index	29
599.6000000000000	0	n/a	359761	KeyDown	41324	1	Little	29
599.9516666666667	0	n/a	359972	KeyDown	41324	3	Middle	29
600.0966666666667	0	n/a	360059	KeyDown	41324	2	Ring	29
600.1283333333333	0	n/a	360078	StopPractice	41324	n/a	n/a	29
600.1300000000000	0	n/a	360079	StartRest	XXXXX	n/a	n/a	29
610.1633333333334	0	n/a	366099	StopRest	XXXXX	n/a	n/a	29
610.1650000000001	0	UPPT001	366100	StartPractice	41324	n/a	n/a	30
610.5483333333334	0	n/a	366330	KeyDown	41324	4	Index	30
610.7283333333334	0	n/a	366438	KeyDown	41324	1	Little	30
610.9283333333334	0	n/a	366558	KeyDown	41324	3	Middle	30
611.0733333333334	0	n/a	366645	KeyDown	41324	2	Ring	30
611.2133333333334	0	n/a	366729	KeyDown	41324	4	Index	30
611.4183333333334	0	n/a	366852	KeyDown	41324	4	Index	30
611.5866666666667	0	n/a	366953	KeyDown	41324	1	Little	30
611.7933333333334	0	n/a	367077	KeyDown	41324	3	Middle	30
612.0383333333334	0	n/a	367224	KeyDown	41324	2	Ring	30
612.1733333333334	0	n/a	367305	KeyDown	41324	4	Index	30
612.3650000000000	0	n/a	367420	KeyDown	41324	4	Index	30
612.6433333333333	0	n/a	367587	KeyDown	41324	1	Little	30
613.3166666666667	0	n/a	367991	KeyDown	41324	3	Middle	30
613.4616666666667	0	n/a	368078	KeyDown	41324	2	Ring	30
613.5700000000001	0	n/a	368143	KeyDown	41324	4	Index	30
613.8700000000000	0	n/a	368323	KeyDown	41324	4	Index	30
614.0233333333334	0	n/a	368415	KeyDown	41324	1	Little	30
614.3183333333334	0	n/a	368592	KeyDown	41324	3	Middle	30
614.5066666666667	0	n/a	368705	KeyDown	41324	2	Ring	30
614.5950000000000	0	n/a	368758	KeyDown	41324	4	Index	30
614.8566666666667	0	n/a	368915	KeyDown	41324	4	Index	30
614.9966666666667	0	n/a	368999	KeyDown	41324	1	Little	30
615.3016666666667	0	n/a	369182	KeyDown	41324	3	Middle	30
615.4633333333334	0	n/a	369279	KeyDown	41324	2	Ring	30
615.5633333333334	0	n/a	369339	KeyDown	41324	4	Index	30
615.8000000000001	0	n/a	369481	KeyDown	41324	4	Index	30
615.9866666666667	0	n/a	369593	KeyDown	41324	1	Little	30
616.2516666666667	0	n/a	369752	KeyDown	41324	3	Middle	30
616.5583333333334	0	n/a	369936	KeyDown	41324	2	Ring	30
616.6683333333334	0	n/a	370002	KeyDown	41324	4	Index	30
617.1283333333333	0	n/a	370278	KeyDown	41324	1	Little	30
617.8283333333334	0	n/a	370698	KeyDown	41324	4	Index	30
617.9983333333333	0	n/a	370800	KeyDown	41324	1	Little	30
618.4216666666667	0	n/a	371054	KeyDown	41324	3	Middle	30
618.6533333333334	0	n/a	371193	KeyDown	41324	2	Ring	30
618.8416666666667	0	n/a	371306	KeyDown	41324	4	Index	30
619.1633333333334	0	n/a	371499	KeyDown	41324	4	Index	30
619.3333333333334	0	n/a	371601	KeyDown	41324	1	Little	30
619.8283333333334	0	n/a	371898	KeyDown	41324	3	Middle	30
620.0766666666667	0	n/a	372047	KeyDown	41324	2	Ring	30
620.2033333333334	0	n/a	372123	StopPractice	41324	n/a	n/a	30
620.2050000000000	0	n/a	372124	StartRest	XXXXX	n/a	n/a	30
630.2383333333333	0	n/a	378144	StopRest	XXXXX	n/a	n/a	30
630.2400000000000	0	UPPT001	378145	StartPractice	41324	n/a	n/a	31
630.6916666666667	0	n/a	378416	KeyDown	41324	4	Index	31
630.8683333333333	0	n/a	378522	KeyDown	41324	1	Little	31
631.0716666666667	0	n/a	378644	KeyDown	41324	3	Middle	31
631.2866666666667	0	n/a	378773	KeyDown	41324	2	Ring	31
631.4416666666667	0	n/a	378866	KeyDown	41324	4	Index	31
631.6533333333334	0	n/a	378993	KeyDown	41324	4	Index	31
631.8250000000000	0	n/a	379096	KeyDown	41324	1	Little	31
632.1816666666667	0	n/a	379310	KeyDown	41324	3	Middle	31
632.3066666666667	0	n/a	379385	KeyDown	41324	2	Ring	31
632.4100000000001	0	n/a	379447	KeyDown	41324	4	Index	31
632.6766666666667	0	n/a	379607	KeyDown	41324	4	Index	31
632.9350000000001	0	n/a	379762	KeyDown	41324	1	Little	31
633.2400000000000	0	n/a	379945	KeyDown	41324	3	Middle	31
633.3283333333334	0	n/a	379998	KeyDown	41324	2	Ring	31
633.4416666666667	0	n/a	380066	KeyDown	41324	4	Index	31
633.7516666666667	0	n/a	380252	KeyDown	41324	4	Index	31
633.9533333333334	0	n/a	380373	KeyDown	41324	1	Little	31
634.2116666666667	0	n/a	380528	KeyDown	41324	3	Middle	31
634.3366666666667	0	n/a	380603	KeyDown	41324	2	Ring	31
634.4500000000000	0	n/a	380671	KeyDown	41324	4	Index	31
634.6966666666667	0	n/a	380819	KeyDown	41324	4	Index	31
634.8616666666667	0	n/a	380918	KeyDown	41324	1	Little	31
635.1916666666667	0	n/a	381116	KeyDown	41324	3	Middle	31
635.3666666666667	0	n/a	381221	KeyDown	41324	2	Ring	31
635.4350000000001	0	n/a	381262	KeyDown	41324	4	Index	31
635.6883333333334	0	n/a	381414	KeyDown	41324	4	Index	31
636.0433333333334	0	n/a	381627	KeyDown	41324	1	Little	31
636.2883333333334	0	n/a	381774	KeyDown	41324	3	Middle	31
636.5483333333334	0	n/a	381930	KeyDown	41324	2	Ring	31
636.6583333333334	0	n/a	381996	KeyDown	41324	4	Index	31
637.0333333333334	0	n/a	382221	KeyDown	41324	4	Index	31
637.2683333333334	0	n/a	382362	KeyDown	41324	1	Little	31
637.5583333333334	0	n/a	382536	KeyDown	41324	3	Middle	31
637.7133333333334	0	n/a	382629	KeyDown	41324	2	Ring	31
637.7933333333334	0	n/a	382677	KeyDown	41324	4	Index	31
638.0750000000000	0	n/a	382846	KeyDown	41324	4	Index	31
638.2416666666667	0	n/a	382946	KeyDown	41324	1	Little	31
638.6016666666667	0	n/a	383162	KeyDown	41324	3	Middle	31
638.7716666666668	0	n/a	383264	KeyDown	41324	2	Ring	31
638.9333333333334	0	n/a	383361	KeyDown	41324	4	Index	31
639.1600000000001	0	n/a	383497	KeyDown	41324	4	Index	31
639.3366666666667	0	n/a	383603	KeyDown	41324	1	Little	31
639.5783333333334	0	n/a	383748	KeyDown	41324	3	Middle	31
639.7116666666667	0	n/a	383828	KeyDown	41324	2	Ring	31
639.7916666666667	0	n/a	383876	KeyDown	41324	4	Index	31
640.0850000000000	0	n/a	384052	KeyDown	41324	4	Index	31
640.2366666666667	0	n/a	384143	KeyDown	41324	1	Little	31
640.2783333333334	0	n/a	384168	StopPractice	41324	n/a	n/a	31
640.2800000000001	0	n/a	384169	StartRest	XXXXX	n/a	n/a	31
650.3300000000000	0	n/a	390199	StopRest	XXXXX	n/a	n/a	31
650.3316666666667	0	UPPT001	390200	StartPractice	41324	n/a	n/a	32
650.8033333333334	0	n/a	390483	KeyDown	41324	4	Index	32
651.0033333333333	0	n/a	390603	KeyDown	41324	1	Little	32
651.2500000000000	0	n/a	390751	KeyDown	41324	3	Middle	32
651.3716666666667	0	n/a	390824	KeyDown	41324	2	Ring	32
651.6750000000001	0	n/a	391006	KeyDown	41324	4	Index	32
652.3983333333334	0	n/a	391440	KeyDown	41324	4	Index	32
652.5916666666667	0	n/a	391556	KeyDown	41324	1	Little	32
652.8600000000000	0	n/a	391717	KeyDown	41324	3	Middle	32
653.0816666666667	0	n/a	391850	KeyDown	41324	2	Ring	32
653.1650000000001	0	n/a	391900	KeyDown	41324	4	Index	32
653.4000000000001	0	n/a	392041	KeyDown	41324	4	Index	32
653.5550000000001	0	n/a	392134	KeyDown	41324	1	Little	32
653.7700000000001	0	n/a	392263	KeyDown	41324	3	Middle	32
653.9650000000000	0	n/a	392380	KeyDown	41324	2	Ring	32
654.0650000000001	0	n/a	392440	KeyDown	41324	4	Index	32
654.2850000000001	0	n/a	392572	KeyDown	41324	4	Index	32
654.4633333333334	0	n/a	392679	KeyDown	41324	1	Little	32
654.6733333333334	0	n/a	392805	KeyDown	41324	3	Middle	32
654.9500000000000	0	n/a	392971	KeyDown	41324	2	Ring	32
655.1183333333333	0	n/a	393072	KeyDown	41324	4	Index	32
655.3250000000000	0	n/a	393196	KeyDown	41324	4	Index	32
655.5833333333334	0	n/a	393351	KeyDown	41324	1	Little	32
655.8700000000000	0	n/a	393523	KeyDown	41324	3	Middle	32
656.1050000000000	0	n/a	393664	KeyDown	41324	2	Ring	32
656.2300000000000	0	n/a	393739	KeyDown	41324	4	Index	32
656.4233333333334	0	n/a	393855	KeyDown	41324	4	Index	32
656.6666666666667	0	n/a	394001	KeyDown	41324	1	Little	32
656.9900000000000	0	n/a	394195	KeyDown	41324	3	Middle	32
657.2416666666667	0	n/a	394346	KeyDown	41324	2	Ring	32
657.3516666666667	0	n/a	394412	KeyDown	41324	4	Index	32
657.5716666666667	0	n/a	394544	KeyDown	41324	4	Index	32
657.6900000000001	0	n/a	394615	KeyDown	41324	1	Little	32
657.9600000000000	0	n/a	394777	KeyDown	41324	3	Middle	32
658.7866666666667	0	n/a	395273	KeyDown	41324	2	Ring	32
659.0083333333333	0	n/a	395406	KeyDown	41324	4	Index	32
659.2833333333334	0	n/a	395571	KeyDown	41324	4	Index	32
659.8683333333333	0	n/a	395922	KeyDown	41324	1	Little	32
660.1250000000000	0	n/a	396076	KeyDown	41324	3	Middle	32
660.3033333333334	0	n/a	396183	KeyDown	41324	2	Ring	32
660.3700000000000	0	n/a	396223	StopPractice	41324	n/a	n/a	32
660.3716666666667	0	n/a	396224	StartRest	XXXXX	n/a	n/a	32
670.4050000000001	0	n/a	402244	StopRest	XXXXX	n/a	n/a	32
670.4066666666668	0	UPPT001	402245	StartPractice	41324	n/a	n/a	33
670.7966666666667	0	n/a	402479	KeyDown	41324	4	Index	33
670.9550000000000	0	n/a	402574	KeyDown	41324	1	Little	33
671.1250000000000	0	n/a	402676	KeyDown	41324	3	Middle	33
671.2800000000001	0	n/a	402769	KeyDown	41324	2	Ring	33
671.4433333333334	0	n/a	402867	KeyDown	41324	4	Index	33
671.7233333333334	0	n/a	403035	KeyDown	41324	4	Index	33
671.9033333333334	0	n/a	403143	KeyDown	41324	1	Little	33
672.1116666666667	0	n/a	403268	KeyDown	41324	3	Middle	33
672.2750000000001	0	n/a	403366	KeyDown	41324	2	Ring	33
672.4133333333334	0	n/a	403449	KeyDown	41324	4	Index	33
672.6950000000001	0	n/a	403618	KeyDown	41324	4	Index	33
672.8450000000000	0	n/a	403708	KeyDown	41324	1	Little	33
673.1133333333333	0	n/a	403869	KeyDown	41324	3	Middle	33
673.2300000000000	0	n/a	403939	KeyDown	41324	2	Ring	33
673.3133333333334	0	n/a	403989	KeyDown	41324	4	Index	33
673.5400000000001	0	n/a	404125	KeyDown	41324	4	Index	33
673.8350000000000	0	n/a	404302	KeyDown	41324	1	Little	33
674.5050000000000	0	n/a	404704	KeyDown	41324	3	Middle	33
674.6366666666667	0	n/a	404783	KeyDown	41324	2	Ring	33
674.7450000000000	0	n/a	404848	KeyDown	41324	4	Index	33
675.0300000000001	0	n/a	405019	KeyDown	41324	4	Index	33
675.2450000000000	0	n/a	405148	KeyDown	41324	1	Little	33
675.4683333333334	0	n/a	405282	KeyDown	41324	3	Middle	33
675.6033333333334	0	n/a	405363	KeyDown	41324	2	Ring	33
675.6900000000001	0	n/a	405415	KeyDown	41324	4	Index	33
675.9616666666667	0	n/a	405578	KeyDown	41324	4	Index	33
676.1416666666668	0	n/a	405686	KeyDown	41324	1	Little	33
676.3933333333334	0	n/a	405837	KeyDown	41324	3	Middle	33
676.5250000000001	0	n/a	405916	KeyDown	41324	2	Ring	33
676.6033333333334	0	n/a	405963	KeyDown	41324	4	Index	33
676.8716666666667	0	n/a	406124	KeyDown	41324	4	Index	33
677.0800000000000	0	n/a	406249	KeyDown	41324	1	Little	33
677.3366666666667	0	n/a	406403	KeyDown	41324	3	Middle	33
677.5500000000001	0	n/a	406531	KeyDown	41324	2	Ring	33
677.6000000000000	0	n/a	406561	KeyDown	41324	4	Index	33
677.9150000000001	0	n/a	406750	KeyDown	41324	4	Index	33
678.6283333333333	0	n/a	407178	KeyDown	41324	1	Little	33
678.8516666666667	0	n/a	407312	KeyDown	41324	3	Middle	33
679.2850000000001	0	n/a	407572	KeyDown	41324	2	Ring	33
679.4333333333334	0	n/a	407661	KeyDown	41324	4	Index	33
679.7816666666668	0	n/a	407870	KeyDown	41324	4	Index	33
680.0050000000000	0	n/a	408004	KeyDown	41324	1	Little	33
680.3500000000000	0	n/a	408211	KeyDown	41324	3	Middle	33
680.4450000000001	0	n/a	408268	StopPractice	41324	n/a	n/a	33
680.4466666666667	0	n/a	408269	StartRest	XXXXX	n/a	n/a	33
690.4800000000000	0	n/a	414289	StopRest	XXXXX	n/a	n/a	33
690.4816666666667	0	UPPT001	414290	StartPractice	41324	n/a	n/a	34
690.9983333333333	0	n/a	414600	KeyDown	41324	4	Index	34
691.2033333333334	0	n/a	414723	KeyDown	41324	1	Little	34
691.4650000000000	0	n/a	414880	KeyDown	41324	3	Middle	34
691.6200000000000	0	n/a	414973	KeyDown	41324	2	Ring	34
691.7416666666667	0	n/a	415046	KeyDown	41324	4	Index	34
691.9183333333334	0	n/a	415152	KeyDown	41324	4	Index	34
692.0966666666667	0	n/a	415259	KeyDown	41324	1	Little	34
692.2783333333334	0	n/a	415368	KeyDown	41324	3	Middle	34
692.4783333333334	0	n/a	415488	KeyDown	41324	4	Index	34
692.5800000000000	0	n/a	415549	KeyDown	41324	2	Ring	34
693.0583333333334	0	n/a	415836	KeyDown	41324	4	Index	34
693.3333333333334	0	n/a	416001	KeyDown	41324	1	Little	34
693.6150000000000	0	n/a	416170	KeyDown	41324	3	Middle	34
693.7683333333334	0	n/a	416262	KeyDown	41324	2	Ring	34
693.8766666666667	0	n/a	416327	KeyDown	41324	4	Index	34
694.1000000000000	0	n/a	416461	KeyDown	41324	4	Index	34
694.2433333333333	0	n/a	416547	KeyDown	41324	1	Little	34
694.5700000000001	0	n/a	416743	KeyDown	41324	3	Middle	34
694.7200000000000	0	n/a	416833	KeyDown	41324	2	Ring	34
694.8200000000001	0	n/a	416893	KeyDown	41324	4	Index	34
695.0600000000001	0	n/a	417037	KeyDown	41324	4	Index	34
695.2083333333334	0	n/a	417126	KeyDown	41324	1	Little	34
695.5433333333334	0	n/a	417327	KeyDown	41324	3	Middle	34
695.7083333333334	0	n/a	417426	KeyDown	41324	2	Ring	34
695.8383333333334	0	n/a	417504	KeyDown	41324	4	Index	34
696.0450000000001	0	n/a	417628	KeyDown	41324	4	Index	34
696.2633333333333	0	n/a	417759	KeyDown	41324	1	Little	34
696.5400000000001	0	n/a	417925	KeyDown	41324	3	Middle	34
696.7383333333333	0	n/a	418044	KeyDown	41324	2	Ring	34
696.8350000000000	0	n/a	418102	KeyDown	41324	4	Index	34
697.0883333333334	0	n/a	418254	KeyDown	41324	4	Index	34
697.5083333333333	0	n/a	418506	KeyDown	41324	1	Little	34
698.0433333333334	0	n/a	418827	KeyDown	41324	3	Middle	34
698.2666666666668	0	n/a	418961	KeyDown	41324	2	Ring	34
698.3516666666667	0	n/a	419012	KeyDown	41324	4	Index	34
698.6050000000000	0	n/a	419164	KeyDown	41324	4	Index	34
698.8183333333334	0	n/a	419292	KeyDown	41324	1	Little	34
699.3133333333334	0	n/a	419589	KeyDown	41324	3	Middle	34
699.5883333333334	0	n/a	419754	KeyDown	41324	3	Middle	34
699.7866666666667	0	n/a	419873	KeyDown	41324	2	Ring	34
699.8950000000001	0	n/a	419938	KeyDown	41324	4	Index	34
700.2350000000000	0	n/a	420142	KeyDown	41324	4	Index	34
700.4400000000001	0	n/a	420265	KeyDown	41324	1	Little	34
700.5200000000001	0	n/a	420313	StopPractice	41324	n/a	n/a	34
700.5216666666668	0	n/a	420314	StartRest	XXXXX	n/a	n/a	34
710.5550000000001	0	n/a	426334	StopRest	XXXXX	n/a	n/a	34
710.5566666666667	0	UPPT001	426335	StartPractice	41324	n/a	n/a	35
711.0100000000000	0	n/a	426607	KeyDown	41324	4	Index	35
711.1916666666667	0	n/a	426716	KeyDown	41324	1	Little	35
711.5316666666668	0	n/a	426920	KeyDown	41324	3	Middle	35
711.6850000000001	0	n/a	427012	KeyDown	41324	2	Ring	35
711.8000000000001	0	n/a	427081	KeyDown	41324	4	Index	35
711.9850000000000	0	n/a	427192	KeyDown	41324	4	Index	35
712.1583333333334	0	n/a	427296	KeyDown	41324	1	Little	35
712.3750000000000	0	n/a	427426	KeyDown	41324	3	Middle	35
712.5083333333333	0	n/a	427506	KeyDown	41324	2	Ring	35
712.6400000000001	0	n/a	427585	KeyDown	41324	4	Index	35
712.8200000000001	0	n/a	427693	KeyDown	41324	4	Index	35
713.2383333333333	0	n/a	427944	KeyDown	41324	1	Little	35
714.0683333333334	0	n/a	428442	KeyDown	41324	3	Middle	35
714.2483333333333	0	n/a	428550	KeyDown	41324	2	Ring	35
714.3800000000000	0	n/a	428629	KeyDown	41324	4	Index	35
714.6183333333333	0	n/a	428772	KeyDown	41324	4	Index	35
714.8216666666667	0	n/a	428894	KeyDown	41324	1	Little	35
715.1100000000000	0	n/a	429067	KeyDown	41324	3	Middle	35
715.2850000000001	0	n/a	429172	KeyDown	41324	2	Ring	35
715.4183333333334	0	n/a	429252	KeyDown	41324	4	Index	35
715.6300000000000	0	n/a	429379	KeyDown	41324	4	Index	35
715.8550000000000	0	n/a	429514	KeyDown	41324	1	Little	35
716.2466666666667	0	n/a	429749	KeyDown	41324	3	Middle	35
716.3966666666668	0	n/a	429839	KeyDown	41324	2	Ring	35
716.5133333333334	0	n/a	429909	KeyDown	41324	4	Index	35
716.7400000000000	0	n/a	430045	KeyDown	41324	4	Index	35
716.9100000000001	0	n/a	430147	KeyDown	41324	1	Little	35
717.1683333333334	0	n/a	430302	KeyDown	41324	3	Middle	35
717.3116666666667	0	n/a	430388	KeyDown	41324	2	Ring	35
717.4250000000001	0	n/a	430456	KeyDown	41324	4	Index	35
717.6683333333334	0	n/a	430602	KeyDown	41324	4	Index	35
717.8416666666667	0	n/a	430706	KeyDown	41324	1	Little	35
718.2283333333334	0	n/a	430938	KeyDown	41324	3	Middle	35
718.3400000000000	0	n/a	431005	KeyDown	41324	2	Ring	35
718.5133333333334	0	n/a	431109	KeyDown	41324	4	Index	35
718.7066666666667	0	n/a	431225	KeyDown	41324	4	Index	35
718.8983333333334	0	n/a	431340	KeyDown	41324	1	Little	35
719.2166666666667	0	n/a	431531	KeyDown	41324	3	Middle	35
719.3933333333334	0	n/a	431637	KeyDown	41324	2	Ring	35
719.4966666666667	0	n/a	431699	KeyDown	41324	4	Index	35
719.8050000000001	0	n/a	431884	KeyDown	41324	4	Index	35
719.9633333333334	0	n/a	431979	KeyDown	41324	1	Little	35
720.5016666666667	0	n/a	432302	KeyDown	41324	3	Middle	35
720.5950000000000	0	n/a	432358	StopPractice	41324	n/a	n/a	35
720.5966666666667	0	n/a	432359	StartRest	XXXXX	n/a	n/a	35
730.6300000000000	0	n/a	438379	StopRest	XXXXX	n/a	n/a	35
730.6316666666667	0	UPPT001	438380	StartPractice	41324	n/a	n/a	36
731.0083333333333	0	n/a	438606	KeyDown	41324	4	Index	36
731.2200000000000	0	n/a	438733	KeyDown	41324	1	Little	36
731.4233333333334	0	n/a	438855	KeyDown	41324	3	Middle	36
731.5666666666667	0	n/a	438941	KeyDown	41324	2	Ring	36
731.7433333333333	0	n/a	439047	KeyDown	41324	4	Index	36
731.9733333333334	0	n/a	439185	KeyDown	41324	4	Index	36
732.1600000000001	0	n/a	439297	KeyDown	41324	1	Little	36
732.4483333333334	0	n/a	439470	KeyDown	41324	3	Middle	36
732.6650000000001	0	n/a	439600	KeyDown	41324	2	Ring	36
732.9100000000001	0	n/a	439747	KeyDown	41324	4	Index	36
733.2350000000000	0	n/a	439942	KeyDown	41324	4	Index	36
733.4000000000001	0	n/a	440041	KeyDown	41324	1	Little	36
733.7950000000001	0	n/a	440278	KeyDown	41324	3	Middle	36
733.9283333333334	0	n/a	440358	KeyDown	41324	2	Ring	36
734.0583333333334	0	n/a	440436	KeyDown	41324	4	Index	36
734.2700000000001	0	n/a	440563	KeyDown	41324	4	Index	36
734.5050000000000	0	n/a	440704	KeyDown	41324	1	Little	36
734.7250000000000	0	n/a	440836	KeyDown	41324	3	Middle	36
734.9000000000001	0	n/a	440941	KeyDown	41324	2	Ring	36
735.0200000000001	0	n/a	441013	KeyDown	41324	4	Index	36
735.2150000000000	0	n/a	441130	KeyDown	41324	4	Index	36
735.3750000000000	0	n/a	441226	KeyDown	41324	1	Little	36
735.7150000000000	0	n/a	441430	KeyDown	41324	3	Middle	36
735.8616666666667	0	n/a	441518	KeyDown	41324	2	Ring	36
735.9483333333334	0	n/a	441570	KeyDown	41324	4	Index	36
736.1533333333334	0	n/a	441693	KeyDown	41324	4	Index	36
736.4450000000001	0	n/a	441868	KeyDown	41324	1	Little	36
737.4916666666667	0	n/a	442496	KeyDown	41324	3	Middle	36
737.7033333333334	0	n/a	442623	KeyDown	41324	2	Ring	36
737.8533333333334	0	n/a	442713	KeyDown	41324	4	Index	36
738.1183333333333	0	n/a	442872	KeyDown	41324	4	Index	36
738.3250000000000	0	n/a	442996	KeyDown	41324	1	Little	36
738.6650000000001	0	n/a	443200	KeyDown	41324	3	Middle	36
738.8000000000001	0	n/a	443281	KeyDown	41324	2	Ring	36
738.9550000000000	0	n/a	443374	KeyDown	41324	4	Index	36
739.1750000000001	0	n/a	443506	KeyDown	41324	4	Index	36
739.3116666666667	0	n/a	443588	KeyDown	41324	1	Little	36
739.6283333333333	0	n/a	443778	KeyDown	41324	3	Middle	36
739.7333333333333	0	n/a	443841	KeyDown	41324	2	Ring	36
739.8350000000000	0	n/a	443902	KeyDown	41324	4	Index	36
740.0600000000001	0	n/a	444037	KeyDown	41324	4	Index	36
740.3433333333334	0	n/a	444207	KeyDown	41324	1	Little	36
740.6700000000001	0	n/a	444403	StopPractice	41324	n/a	n/a	36
740.6716666666667	0	n/a	444404	StartRest	XXXXX	n/a	n/a	36
750.7066666666667	0	n/a	450425	StopRest	XXXXX	n/a	n/a	36
