onset	duration	channel	onset_sample_idx	event_type	target_sequence	keypress_id	finger_label	trial_number
27.6233333333333	0	UPPT001	16575	StartPractice	41324	n/a	n/a	1
28.2600000000000	0	n/a	16957	KeyDown	41324	4	Index	1
28.5200000000000	0	n/a	17113	KeyDown	41324	1	Little	1
28.8466666666667	0	n/a	17309	KeyDown	41324	3	Middle	1
28.9566666666667	0	n/a	17375	KeyDown	41324	2	Ring	1
29.1516666666667	0	n/a	17492	KeyDown	41324	4	Index	1
29.3633333333333	0	n/a	17619	KeyDown	41324	4	Index	1
29.5116666666667	0	n/a	17708	KeyDown	41324	1	Little	1
29.6983333333333	0	n/a	17820	KeyDown	41324	3	Middle	1
29.8116666666667	0	n/a	17888	KeyDown	41324	2	Ring	1
29.9350000000000	0	n/a	17962	KeyDown	41324	4	Index	1
30.1350000000000	0	n/a	18082	KeyDown	41324	4	Index	1
30.1950000000000	0	n/a	18118	KeyDown	41324	1	Little	1
30.3666666666667	0	n/a	18221	KeyDown	41324	3	Middle	1
30.4600000000000	0	n/a	18277	KeyDown	41324	2	Ring	1
30.5950000000000	0	n/a	18358	KeyDown	41324	4	Index	1
30.7716666666667	0	n/a	18464	KeyDown	41324	4	Index	1
30.8566666666667	0	n/a	18515	KeyDown	41324	1	Little	1
30.9916666666667	0	n/a	18596	KeyDown	41324	3	Middle	1
31.1150000000000	0	n/a	18670	KeyDown	41324	2	Ring	1
31.2283333333333	0	n/a	18738	KeyDown	41324	4	Index	1
31.4200000000000	0	n/a	18853	KeyDown	41324	4	Index	1
31.5266666666667	0	n/a	18917	KeyDown	41324	1	Little	1
31.6350000000000	0	n/a	18982	KeyDown	41324	3	Middle	1
31.7316666666667	0	n/a	19040	KeyDown	41324	2	Ring	1
31.8566666666667	0	n/a	19115	KeyDown	41324	4	Index	1
32.0400000000000	0	n/a	19225	KeyDown	41324	4	Index	1
32.2650000000000	0	n/a	19360	KeyDown	41324	3	Middle	1
32.3550000000000	0	n/a	19414	KeyDown	41324	2	Ring	1
32.4716666666667	0	n/a	19484	KeyDown	41324	4	Index	1
32.6666666666667	0	n/a	19601	KeyDown	41324	4	Index	1
32.7450000000000	0	n/a	19648	KeyDown	41324	1	Little	1
32.9133333333333	0	n/a	19749	KeyDown	41324	3	Middle	1
33.0016666666667	0	n/a	19802	KeyDown	41324	2	Ring	1
33.0950000000000	0	n/a	19858	KeyDown	41324	4	Index	1
33.2616666666667	0	n/a	19958	KeyDown	41324	4	Index	1
33.3550000000000	0	n/a	20014	KeyDown	41324	1	Little	1
33.4850000000000	0	n/a	20092	KeyDown	41324	3	Middle	1
33.6100000000000	0	n/a	20167	KeyDown	41324	2	Ring	1
33.7033333333333	0	n/a	20223	KeyDown	41324	4	Index	1
33.8950000000000	0	n/a	20338	KeyDown	41324	4	Index	1
34.0200000000000	0	n/a	20413	KeyDown	41324	1	Little	1
34.2366666666667	0	n/a	20543	KeyDown	41324	3	Middle	1
34.3450000000000	0	n/a	20608	KeyDown	41324	2	Ring	1
34.4316666666667	0	n/a	20660	KeyDown	41324	4	Index	1
34.6333333333333	0	n/a	20781	KeyDown	41324	4	Index	1
34.7300000000000	0	n/a	20839	KeyDown	41324	1	Little	1
34.8683333333333	0	n/a	20922	KeyDown	41324	3	Middle	1
35.0066666666667	0	n/a	21005	KeyDown	41324	2	Ring	1
35.0900000000000	0	n/a	21055	KeyDown	41324	4	Index	1
35.2550000000000	0	n/a	21154	KeyDown	41324	4	Index	1
35.3433333333333	0	n/a	21207	KeyDown	41324	1	Little	1
35.4616666666667	0	n/a	21278	KeyDown	41324	3	Middle	1
35.5916666666667	0	n/a	21356	KeyDown	41324	2	Ring	1
35.6950000000000	0	n/a	21418	KeyDown	41324	4	Index	1
35.8150000000000	0	n/a	21490	KeyDown	41324	4	Index	1
35.9316666666667	0	n/a	21560	KeyDown	41324	1	Little	1
36.3983333333333	0	n/a	21840	KeyDown	41324	3	Middle	1
36.5216666666667	0	n/a	21914	KeyDown	41324	2	Ring	1
36.6266666666667	0	n/a	21977	KeyDown	41324	4	Index	1
36.7850000000000	0	n/a	22072	KeyDown	41324	4	Index	1
36.8800000000000	0	n/a	22129	KeyDown	41324	1	Little	1
36.9916666666667	0	n/a	22196	KeyDown	41324	3	Middle	1
37.1150000000000	0	n/a	22270	KeyDown	41324	2	Ring	1
37.2016666666667	0	n/a	22322	KeyDown	41324	4	Index	1
37.3416666666667	0	n/a	22406	KeyDown	41324	4	Index	1
37.4366666666667	0	n/a	22463	KeyDown	41324	1	Little	1
37.5666666666667	0	n/a	22541	KeyDown	41324	3	Middle	1
37.6700000000000	0	n/a	22603	StopPractice	41324	n/a	n/a	1
37.6716666666667	0	n/a	22604	StartRest	XXXXX	n/a	n/a	1
47.7083333333333	0	n/a	28626	StopRest	XXXXX	n/a	n/a	1
47.7100000000000	0	UPPT001	28627	StartPractice	41324	n/a	n/a	2
48.2516666666667	0	n/a	28952	KeyDown	41324	4	Index	2
48.3516666666667	0	n/a	29012	KeyDown	41324	1	Little	2
48.5200000000000	0	n/a	29113	KeyDown	41324	3	Middle	2
48.6316666666667	0	n/a	29180	KeyDown	41324	2	Ring	2
48.7583333333333	0	n/a	29256	KeyDown	41324	4	Index	2
48.9200000000000	0	n/a	29353	KeyDown	41324	4	Index	2
48.9916666666667	0	n/a	29396	KeyDown	41324	1	Little	2
49.0933333333333	0	n/a	29457	KeyDown	41324	3	Middle	2
49.2233333333333	0	n/a	29535	KeyDown	41324	2	Ring	2
49.3116666666667	0	n/a	29588	KeyDown	41324	4	Index	2
49.4916666666667	0	n/a	29696	KeyDown	41324	4	Index	2
49.6016666666667	0	n/a	29762	KeyDown	41324	1	Little	2
49.7366666666667	0	n/a	29843	KeyDown	41324	3	Middle	2
49.8866666666667	0	n/a	29933	KeyDown	41324	2	Ring	2
49.9766666666667	0	n/a	29987	KeyDown	41324	4	Index	2
50.1500000000000	0	n/a	30091	KeyDown	41324	4	Index	2
50.2333333333333	0	n/a	30141	KeyDown	41324	1	Little	2
50.3800000000000	0	n/a	30229	KeyDown	41324	3	Middle	2
50.5083333333333	0	n/a	30306	KeyDown	41324	2	Ring	2
50.6133333333333	0	n/a	30369	KeyDown	41324	4	Index	2
50.8033333333333	0	n/a	30483	KeyDown	41324	4	Index	2
50.8883333333333	0	n/a	30534	KeyDown	41324	1	Little	2
51.2083333333333	0	n/a	30726	KeyDown	41324	2	Ring	2
51.3716666666667	0	n/a	30824	KeyDown	41324	3	Middle	2
51.5966666666667	0	n/a	30959	KeyDown	41324	4	Index	2
51.7850000000000	0	n/a	31072	KeyDown	41324	1	Little	2
52.3883333333333	0	n/a	31434	KeyDown	41324	3	Middle	2
52.5100000000000	0	n/a	31507	KeyDown	41324	2	Ring	2
52.5933333333333	0	n/a	31557	KeyDown	41324	4	Index	2
52.7766666666667	0	n/a	31667	KeyDown	41324	4	Index	2
52.8583333333333	0	n/a	31716	KeyDown	41324	1	Little	2
52.9983333333333	0	n/a	31800	KeyDown	41324	3	Middle	2
53.1133333333333	0	n/a	31869	KeyDown	41324	2	Ring	2
53.2116666666667	0	n/a	31928	KeyDown	41324	4	Index	2
53.4033333333333	0	n/a	32043	KeyDown	41324	4	Index	2
53.4916666666667	0	n/a	32096	KeyDown	41324	1	Little	2
53.6383333333333	0	n/a	32184	KeyDown	41324	3	Middle	2
53.7583333333333	0	n/a	32256	KeyDown	41324	2	Ring	2
53.8433333333333	0	n/a	32307	KeyDown	41324	4	Index	2
54.0133333333333	0	n/a	32409	KeyDown	41324	4	Index	2
54.0850000000000	0	n/a	32452	KeyDown	41324	1	Little	2
54.1950000000000	0	n/a	32518	KeyDown	41324	3	Middle	2
54.3266666666667	0	n/a	32597	KeyDown	41324	2	Ring	2
54.4183333333333	0	n/a	32652	KeyDown	41324	4	Index	2
54.6166666666667	0	n/a	32771	KeyDown	41324	4	Index	2
54.6766666666667	0	n/a	32807	KeyDown	41324	1	Little	2
54.8183333333333	0	n/a	32892	KeyDown	41324	3	Middle	2
54.9200000000000	0	n/a	32953	KeyDown	41324	2	Ring	2
55.0166666666667	0	n/a	33011	KeyDown	41324	4	Index	2
55.2116666666667	0	n/a	33128	KeyDown	41324	4	Index	2
55.2850000000000	0	n/a	33172	KeyDown	41324	1	Little	2
55.4083333333333	0	n/a	33246	KeyDown	41324	3	Middle	2
55.5400000000000	0	n/a	33325	KeyDown	41324	2	Ring	2
55.5966666666667	0	n/a	33359	KeyDown	41324	4	Index	2
55.9666666666667	0	n/a	33581	KeyDown	41324	4	Index	2
56.1016666666667	0	n/a	33662	KeyDown	41324	1	Little	2
56.2333333333333	0	n/a	33741	KeyDown	41324	3	Middle	2
56.3850000000000	0	n/a	33832	KeyDown	41324	2	Ring	2
56.4466666666667	0	n/a	33869	KeyDown	41324	4	Index	2
56.6233333333333	0	n/a	33975	KeyDown	41324	4	Index	2
56.7050000000000	0	n/a	34024	KeyDown	41324	1	Little	2
56.8266666666667	0	n/a	34097	KeyDown	41324	3	Middle	2
56.9533333333333	0	n/a	34173	KeyDown	41324	2	Ring	2
57.0466666666667	0	n/a	34229	KeyDown	41324	4	Index	2
57.2216666666667	0	n/a	34334	KeyDown	41324	4	Index	2
57.2916666666667	0	n/a	34376	KeyDown	41324	1	Little	2
57.4116666666667	0	n/a	34448	KeyDown	41324	3	Middle	2
57.5283333333333	0	n/a	34518	KeyDown	41324	2	Ring	2
57.6200000000000	0	n/a	34573	KeyDown	41324	4	Index	2
57.7566666666667	0	n/a	34655	StopPractice	41324	n/a	n/a	2
57.7583333333333	0	n/a	34656	StartRest	XXXXX	n/a	n/a	2
67.8000000000000	0	n/a	40681	StopRest	XXXXX	n/a	n/a	2
67.8016666666667	0	UPPT001	40682	StartPractice	41324	n/a	n/a	3
68.4250000000000	0	n/a	41056	KeyDown	41324	4	Index	3
68.5266666666667	0	n/a	41117	KeyDown	41324	1	Little	3
68.6583333333333	0	n/a	41196	KeyDown	41324	3	Middle	3
68.8300000000000	0	n/a	41299	KeyDown	41324	2	Ring	3
68.8583333333333	0	n/a	41316	KeyDown	41324	4	Index	3
69.0516666666667	0	n/a	41432	KeyDown	41324	4	Index	3
69.1616666666667	0	n/a	41498	KeyDown	41324	1	Little	3
69.3650000000000	0	n/a	41620	KeyDown	41324	3	Middle	3
69.5100000000000	0	n/a	41707	KeyDown	41324	2	Ring	3
69.6050000000000	0	n/a	41764	KeyDown	41324	4	Index	3
69.7883333333333	0	n/a	41874	KeyDown	41324	4	Index	3
69.8500000000000	0	n/a	41911	KeyDown	41324	1	Little	3
69.9666666666667	0	n/a	41981	KeyDown	41324	3	Middle	3
70.0950000000000	0	n/a	42058	KeyDown	41324	2	Ring	3
70.1833333333333	0	n/a	42111	KeyDown	41324	4	Index	3
70.3850000000000	0	n/a	42232	KeyDown	41324	4	Index	3
70.4550000000000	0	n/a	42274	KeyDown	41324	1	Little	3
70.5983333333333	0	n/a	42360	KeyDown	41324	3	Middle	3
70.7400000000000	0	n/a	42445	KeyDown	41324	2	Ring	3
70.8100000000000	0	n/a	42487	KeyDown	41324	4	Index	3
71.0466666666667	0	n/a	42629	KeyDown	41324	4	Index	3
71.1233333333333	0	n/a	42675	KeyDown	41324	1	Little	3
71.2700000000000	0	n/a	42763	KeyDown	41324	3	Middle	3
71.4033333333333	0	n/a	42843	KeyDown	41324	2	Ring	3
71.5283333333333	0	n/a	42918	KeyDown	41324	4	Index	3
71.7250000000000	0	n/a	43036	KeyDown	41324	4	Index	3
71.7983333333333	0	n/a	43080	KeyDown	41324	1	Little	3
71.9466666666667	0	n/a	43169	KeyDown	41324	3	Middle	3
72.0766666666667	0	n/a	43247	KeyDown	41324	2	Ring	3
72.1933333333333	0	n/a	43317	KeyDown	41324	4	Index	3
72.3833333333333	0	n/a	43431	KeyDown	41324	4	Index	3
72.4266666666667	0	n/a	43457	KeyDown	41324	1	Little	3
72.5800000000000	0	n/a	43549	KeyDown	41324	3	Middle	3
72.7050000000000	0	n/a	43624	KeyDown	41324	2	Ring	3
72.8150000000000	0	n/a	43690	KeyDown	41324	4	Index	3
73.0250000000000	0	n/a	43816	KeyDown	41324	4	Index	3
73.0883333333333	0	n/a	43854	KeyDown	41324	1	Little	3
73.2466666666667	0	n/a	43949	KeyDown	41324	3	Middle	3
73.3783333333333	0	n/a	44028	KeyDown	41324	2	Ring	3
73.4950000000000	0	n/a	44098	KeyDown	41324	4	Index	3
73.7050000000000	0	n/a	44224	KeyDown	41324	4	Index	3
73.7733333333333	0	n/a	44265	KeyDown	41324	1	Little	3
73.9283333333333	0	n/a	44358	KeyDown	41324	3	Middle	3
74.0733333333333	0	n/a	44445	KeyDown	41324	1	Little	3
74.1350000000000	0	n/a	44482	KeyDown	41324	2	Ring	3
74.5900000000000	0	n/a	44755	KeyDown	41324	4	Index	3
74.7933333333333	0	n/a	44877	KeyDown	41324	4	Index	3
74.9000000000000	0	n/a	44941	KeyDown	41324	1	Little	3
75.0500000000000	0	n/a	45031	KeyDown	41324	3	Middle	3
75.1850000000000	0	n/a	45112	KeyDown	41324	2	Ring	3
75.2650000000000	0	n/a	45160	KeyDown	41324	4	Index	3
75.4266666666667	0	n/a	45257	KeyDown	41324	4	Index	3
75.4833333333333	0	n/a	45291	KeyDown	41324	1	Little	3
75.6133333333333	0	n/a	45369	KeyDown	41324	3	Middle	3
75.7500000000000	0	n/a	45451	KeyDown	41324	2	Ring	3
75.8300000000000	0	n/a	45499	KeyDown	41324	4	Index	3
76.0216666666667	0	n/a	45614	KeyDown	41324	4	Index	3
76.1200000000000	0	n/a	45673	KeyDown	41324	1	Little	3
76.2600000000000	0	n/a	45757	KeyDown	41324	3	Middle	3
76.4016666666667	0	n/a	45842	KeyDown	41324	2	Ring	3
76.4883333333333	0	n/a	45894	KeyDown	41324	4	Index	3
76.6950000000000	0	n/a	46018	KeyDown	41324	4	Index	3
76.7350000000000	0	n/a	46042	KeyDown	41324	1	Little	3
76.8800000000000	0	n/a	46129	KeyDown	41324	3	Middle	3
77.0200000000000	0	n/a	46213	KeyDown	41324	2	Ring	3
77.1300000000000	0	n/a	46279	KeyDown	41324	4	Index	3
77.2983333333333	0	n/a	46380	KeyDown	41324	4	Index	3
77.3483333333333	0	n/a	46410	KeyDown	41324	1	Little	3
77.4900000000000	0	n/a	46495	KeyDown	41324	3	Middle	3
77.6250000000000	0	n/a	46576	KeyDown	41324	2	Ring	3
77.7383333333333	0	n/a	46644	KeyDown	41324	4	Index	3
77.8483333333333	0	n/a	46710	StopPractice	41324	n/a	n/a	3
77.8500000000000	0	n/a	46711	StartRest	XXXXX	n/a	n/a	3
87.8916666666667	0	n/a	52736	StopRest	XXXXX	n/a	n/a	3
87.8933333333333	0	UPPT001	52737	StartPractice	41324	n/a	n/a	4
88.5000000000000	0	n/a	53101	KeyDown	41324	4	Index	4
88.5966666666667	0	n/a	53159	KeyDown	41324	1	Little	4
88.7616666666667	0	n/a	53258	KeyDown	41324	3	Middle	4
88.9216666666667	0	n/a	53354	KeyDown	41324	2	Ring	4
89.0116666666667	0	n/a	53408	KeyDown	41324	4	Index	4
89.2516666666667	0	n/a	53552	KeyDown	41324	4	Index	4
89.3250000000000	0	n/a	53596	KeyDown	41324	1	Little	4
89.4533333333333	0	n/a	53673	KeyDown	41324	3	Middle	4
89.6216666666667	0	n/a	53774	KeyDown	41324	2	Ring	4
89.7166666666667	0	n/a	53831	KeyDown	41324	4	Index	4
89.9283333333333	0	n/a	53958	KeyDown	41324	4	Index	4
89.9966666666667	0	n/a	53999	KeyDown	41324	1	Little	4
90.1200000000000	0	n/a	54073	KeyDown	41324	3	Middle	4
90.2316666666667	0	n/a	54140	KeyDown	41324	2	Ring	4
90.3366666666667	0	n/a	54203	KeyDown	41324	4	Index	4
90.5716666666667	0	n/a	54344	KeyDown	41324	4	Index	4
90.5733333333333	0	n/a	54345	KeyDown	41324	1	Little	4
90.7216666666667	0	n/a	54434	KeyDown	41324	3	Middle	4
90.8633333333333	0	n/a	54519	KeyDown	41324	2	Ring	4
90.9783333333333	0	n/a	54588	KeyDown	41324	4	Index	4
91.1483333333333	0	n/a	54690	KeyDown	41324	4	Index	4
91.1883333333333	0	n/a	54714	KeyDown	41324	1	Little	4
91.3300000000000	0	n/a	54799	KeyDown	41324	3	Middle	4
91.4500000000000	0	n/a	54871	KeyDown	41324	2	Ring	4
91.5416666666667	0	n/a	54926	KeyDown	41324	4	Index	4
91.7500000000000	0	n/a	55051	KeyDown	41324	1	Little	4
91.7550000000000	0	n/a	55054	KeyDown	41324	4	Index	4
91.9200000000000	0	n/a	55153	KeyDown	41324	3	Middle	4
92.0550000000000	0	n/a	55234	KeyDown	41324	2	Ring	4
92.1500000000000	0	n/a	55291	KeyDown	41324	4	Index	4
92.3250000000000	0	n/a	55396	KeyDown	41324	4	Index	4
92.3783333333333	0	n/a	55428	KeyDown	41324	1	Little	4
92.5033333333333	0	n/a	55503	KeyDown	41324	3	Middle	4
92.6216666666667	0	n/a	55574	KeyDown	41324	2	Ring	4
92.7050000000000	0	n/a	55624	KeyDown	41324	4	Index	4
92.8950000000000	0	n/a	55738	KeyDown	41324	4	Index	4
92.9333333333333	0	n/a	55761	KeyDown	41324	1	Little	4
93.0916666666667	0	n/a	55856	KeyDown	41324	3	Middle	4
93.2266666666667	0	n/a	55937	KeyDown	41324	2	Ring	4
93.3050000000000	0	n/a	55984	KeyDown	41324	4	Index	4
93.5000000000000	0	n/a	56101	KeyDown	41324	4	Index	4
93.5566666666667	0	n/a	56135	KeyDown	41324	1	Little	4
93.7066666666667	0	n/a	56225	KeyDown	41324	3	Middle	4
93.8300000000000	0	n/a	56299	KeyDown	41324	2	Ring	4
93.9050000000000	0	n/a	56344	KeyDown	41324	4	Index	4
94.1150000000000	0	n/a	56470	KeyDown	41324	4	Index	4
94.1683333333333	0	n/a	56502	KeyDown	41324	1	Little	4
94.3133333333333	0	n/a	56589	KeyDown	41324	3	Middle	4
94.4383333333333	0	n/a	56664	KeyDown	41324	2	Ring	4
94.4950000000000	0	n/a	56698	KeyDown	41324	4	Index	4
94.6766666666667	0	n/a	56807	KeyDown	41324	4	Index	4
94.7400000000000	0	n/a	56845	KeyDown	41324	1	Little	4
94.9050000000000	0	n/a	56944	KeyDown	41324	3	Middle	4
95.0300000000000	0	n/a	57019	KeyDown	41324	2	Ring	4
95.1350000000000	0	n/a	57082	KeyDown	41324	4	Index	4
95.3183333333333	0	n/a	57192	KeyDown	41324	4	Index	4
95.4000000000000	0	n/a	57241	KeyDown	41324	1	Little	4
95.5450000000000	0	n/a	57328	KeyDown	41324	3	Middle	4
95.6616666666667	0	n/a	57398	KeyDown	41324	2	Ring	4
95.7300000000000	0	n/a	57439	KeyDown	41324	4	Index	4
95.9150000000000	0	n/a	57550	KeyDown	41324	4	Index	4
95.9933333333333	0	n/a	57597	KeyDown	41324	1	Little	4
96.1516666666667	0	n/a	57692	KeyDown	41324	3	Middle	4
96.3016666666667	0	n/a	57782	KeyDown	41324	2	Ring	4
96.4883333333333	0	n/a	57894	KeyDown	41324	3	Middle	4
96.5800000000000	0	n/a	57949	KeyDown	41324	2	Ring	4
96.7716666666667	0	n/a	58064	KeyDown	41324	4	Index	4
96.9800000000000	0	n/a	58189	KeyDown	41324	1	Little	4
97.2683333333333	0	n/a	58362	KeyDown	41324	3	Middle	4
97.4016666666667	0	n/a	58442	KeyDown	41324	2	Ring	4
97.5000000000000	0	n/a	58501	KeyDown	41324	4	Index	4
97.6500000000000	0	n/a	58591	KeyDown	41324	4	Index	4
97.6916666666667	0	n/a	58616	KeyDown	41324	1	Little	4
97.8450000000000	0	n/a	58708	KeyDown	41324	3	Middle	4
97.9400000000000	0	n/a	58765	StopPractice	41324	n/a	n/a	4
97.9416666666667	0	n/a	58766	StartRest	XXXXX	n/a	n/a	4
107.9833333333333	0	n/a	64791	StopRest	XXXXX	n/a	n/a	4
107.9850000000000	0	UPPT001	64792	StartPractice	41324	n/a	n/a	5
108.4833333333333	0	n/a	65091	KeyDown	41324	4	Index	5
108.5866666666667	0	n/a	65153	KeyDown	41324	1	Little	5
108.7466666666667	0	n/a	65249	KeyDown	41324	3	Middle	5
108.8650000000000	0	n/a	65320	KeyDown	41324	2	Ring	5
108.9516666666667	0	n/a	65372	KeyDown	41324	4	Index	5
109.1600000000000	0	n/a	65497	KeyDown	41324	1	Little	5
109.3716666666667	0	n/a	65624	KeyDown	41324	3	Middle	5
109.5416666666667	0	n/a	65726	KeyDown	41324	2	Ring	5
109.6766666666667	0	n/a	65807	KeyDown	41324	4	Index	5
109.8733333333333	0	n/a	65925	KeyDown	41324	4	Index	5
109.9283333333333	0	n/a	65958	KeyDown	41324	1	Little	5
110.0483333333333	0	n/a	66030	KeyDown	41324	3	Middle	5
110.1616666666667	0	n/a	66098	KeyDown	41324	2	Ring	5
110.2466666666667	0	n/a	66149	KeyDown	41324	4	Index	5
110.4183333333333	0	n/a	66252	KeyDown	41324	4	Index	5
110.4633333333333	0	n/a	66279	KeyDown	41324	1	Little	5
110.5916666666667	0	n/a	66356	KeyDown	41324	3	Middle	5
110.6916666666667	0	n/a	66416	KeyDown	41324	2	Ring	5
110.7833333333333	0	n/a	66471	KeyDown	41324	4	Index	5
110.9683333333333	0	n/a	66582	KeyDown	41324	4	Index	5
111.0583333333333	0	n/a	66636	KeyDown	41324	1	Little	5
111.2116666666667	0	n/a	66728	KeyDown	41324	3	Middle	5
111.3683333333333	0	n/a	66822	KeyDown	41324	2	Ring	5
111.5050000000000	0	n/a	66904	KeyDown	41324	4	Index	5
111.7533333333333	0	n/a	67053	KeyDown	41324	4	Index	5
111.9750000000000	0	n/a	67186	KeyDown	41324	1	Little	5
112.2950000000000	0	n/a	67378	KeyDown	41324	3	Middle	5
112.4233333333333	0	n/a	67455	KeyDown	41324	2	Ring	5
112.5383333333333	0	n/a	67524	KeyDown	41324	4	Index	5
112.7050000000000	0	n/a	67624	KeyDown	41324	4	Index	5
112.7416666666667	0	n/a	67646	KeyDown	41324	1	Little	5
112.9083333333333	0	n/a	67746	KeyDown	41324	3	Middle	5
113.0383333333333	0	n/a	67824	KeyDown	41324	2	Ring	5
113.1566666666667	0	n/a	67895	KeyDown	41324	4	Index	5
113.3233333333333	0	n/a	67995	KeyDown	41324	4	Index	5
113.3833333333333	0	n/a	68031	KeyDown	41324	1	Little	5
113.5216666666667	0	n/a	68114	KeyDown	41324	3	Middle	5
113.6366666666667	0	n/a	68183	KeyDown	41324	2	Ring	5
113.7533333333333	0	n/a	68253	KeyDown	41324	4	Index	5
113.9450000000000	0	n/a	68368	KeyDown	41324	4	Index	5
113.9950000000000	0	n/a	68398	KeyDown	41324	1	Little	5
114.1383333333333	0	n/a	68484	KeyDown	41324	3	Middle	5
114.2550000000000	0	n/a	68554	KeyDown	41324	2	Ring	5
114.3766666666667	0	n/a	68627	KeyDown	41324	4	Index	5
114.5666666666667	0	n/a	68741	KeyDown	41324	4	Index	5
114.6116666666667	0	n/a	68768	KeyDown	41324	1	Little	5
114.7466666666667	0	n/a	68849	KeyDown	41324	3	Middle	5
114.8683333333333	0	n/a	68922	KeyDown	41324	2	Ring	5
114.9766666666667	0	n/a	68987	KeyDown	41324	4	Index	5
115.1750000000000	0	n/a	69106	KeyDown	41324	4	Index	5
115.2033333333333	0	n/a	69123	KeyDown	41324	1	Little	5
115.3983333333333	0	n/a	69240	KeyDown	41324	3	Middle	5
115.5133333333333	0	n/a	69309	KeyDown	41324	2	Ring	5
115.6283333333333	0	n/a	69378	KeyDown	41324	4	Index	5
115.7950000000000	0	n/a	69478	KeyDown	41324	4	Index	5
115.9050000000000	0	n/a	69544	KeyDown	41324	1	Little	5
116.0633333333333	0	n/a	69639	KeyDown	41324	3	Middle	5
116.1983333333333	0	n/a	69720	KeyDown	41324	2	Ring	5
116.3116666666667	0	n/a	69788	KeyDown	41324	4	Index	5
116.4766666666667	0	n/a	69887	KeyDown	41324	4	Index	5
116.5466666666667	0	n/a	69929	KeyDown	41324	1	Little	5
116.7233333333333	0	n/a	70035	KeyDown	41324	3	Middle	5
116.8683333333333	0	n/a	70122	KeyDown	41324	2	Ring	5
117.0066666666667	0	n/a	70205	KeyDown	41324	4	Index	5
117.1516666666667	0	n/a	70292	KeyDown	41324	1	Little	5
117.8416666666667	0	n/a	70706	KeyDown	41324	1	Little	5
118.0316666666667	0	n/a	70820	StopPractice	41324	n/a	n/a	5
118.0333333333333	0	n/a	70821	StartRest	XXXXX	n/a	n/a	5
128.0750000000000	0	n/a	76846	StopRest	XXXXX	n/a	n/a	5
128.0766666666667	0	UPPT001	76847	StartPractice	41324	n/a	n/a	6
128.5000000000000	0	n/a	77101	KeyDown	41324	4	Index	6
128.6033333333334	0	n/a	77163	KeyDown	41324	1	Little	6
128.7466666666667	0	n/a	77249	KeyDown	41324	3	Middle	6
128.8500000000000	0	n/a	77311	KeyDown	41324	2	Ring	6
128.9683333333333	0	n/a	77382	KeyDown	41324	4	Index	6
129.1083333333333	0	n/a	77466	KeyDown	41324	4	Index	6
129.1800000000000	0	n/a	77509	KeyDown	41324	1	Little	6
129.3016666666667	0	n/a	77582	KeyDown	41324	3	Middle	6
129.4400000000000	0	n/a	77665	KeyDown	41324	2	Ring	6
129.5316666666667	0	n/a	77720	KeyDown	41324	4	Index	6
129.7633333333333	0	n/a	77859	KeyDown	41324	4	Index	6
129.8216666666667	0	n/a	77894	KeyDown	41324	1	Little	6
129.9566666666667	0	n/a	77975	KeyDown	41324	3	Middle	6
130.0750000000000	0	n/a	78046	KeyDown	41324	2	Ring	6
130.1700000000000	0	n/a	78103	KeyDown	41324	4	Index	6
130.3550000000000	0	n/a	78214	KeyDown	41324	4	Index	6
130.3750000000000	0	n/a	78226	KeyDown	41324	1	Little	6
130.5183333333333	0	n/a	78312	KeyDown	41324	3	Middle	6
130.6333333333334	0	n/a	78381	KeyDown	41324	2	Ring	6
130.7366666666667	0	n/a	78443	KeyDown	41324	4	Index	6
130.9133333333334	0	n/a	78549	KeyDown	41324	4	Index	6
130.9450000000000	0	n/a	78568	KeyDown	41324	1	Little	6
131.0700000000000	0	n/a	78643	KeyDown	41324	3	Middle	6
131.1850000000000	0	n/a	78712	KeyDown	41324	2	Ring	6
131.3116666666667	0	n/a	78788	KeyDown	41324	4	Index	6
131.6250000000000	0	n/a	78976	KeyDown	41324	4	Index	6
131.8233333333334	0	n/a	79095	KeyDown	41324	1	Little	6
132.0000000000000	0	n/a	79201	KeyDown	41324	3	Middle	6
132.1350000000000	0	n/a	79282	KeyDown	41324	2	Ring	6
132.2266666666667	0	n/a	79337	KeyDown	41324	4	Index	6
132.3800000000000	0	n/a	79429	KeyDown	41324	4	Index	6
132.4666666666667	0	n/a	79481	KeyDown	41324	1	Little	6
132.6033333333334	0	n/a	79563	KeyDown	41324	3	Middle	6
132.7233333333333	0	n/a	79635	KeyDown	41324	2	Ring	6
132.8183333333333	0	n/a	79692	KeyDown	41324	4	Index	6
133.0050000000000	0	n/a	79804	KeyDown	41324	4	Index	6
133.0400000000000	0	n/a	79825	KeyDown	41324	1	Little	6
133.1750000000000	0	n/a	79906	KeyDown	41324	3	Middle	6
133.3000000000000	0	n/a	79981	KeyDown	41324	2	Ring	6
133.4150000000000	0	n/a	80050	KeyDown	41324	4	Index	6
133.5850000000000	0	n/a	80152	KeyDown	41324	4	Index	6
133.6483333333333	0	n/a	80190	KeyDown	41324	1	Little	6
133.7750000000000	0	n/a	80266	KeyDown	41324	3	Middle	6
133.8950000000000	0	n/a	80338	KeyDown	41324	2	Ring	6
134.0116666666667	0	n/a	80408	KeyDown	41324	4	Index	6
134.2333333333333	0	n/a	80541	KeyDown	41324	4	Index	6
134.2933333333334	0	n/a	80577	KeyDown	41324	1	Little	6
134.4683333333333	0	n/a	80682	KeyDown	41324	3	Middle	6
134.6016666666667	0	n/a	80762	KeyDown	41324	2	Ring	6
134.7183333333333	0	n/a	80832	KeyDown	41324	4	Index	6
134.9450000000000	0	n/a	80968	KeyDown	41324	4	Index	6
134.9866666666667	0	n/a	80993	KeyDown	41324	1	Little	6
135.1233333333333	0	n/a	81075	KeyDown	41324	3	Middle	6
135.2483333333333	0	n/a	81150	KeyDown	41324	2	Ring	6
135.3616666666667	0	n/a	81218	KeyDown	41324	4	Index	6
135.5083333333334	0	n/a	81306	KeyDown	41324	4	Index	6
135.5700000000000	0	n/a	81343	KeyDown	41324	1	Little	6
135.6950000000000	0	n/a	81418	KeyDown	41324	3	Middle	6
135.8250000000000	0	n/a	81496	KeyDown	41324	2	Ring	6
135.9316666666667	0	n/a	81560	KeyDown	41324	4	Index	6
136.0983333333333	0	n/a	81660	KeyDown	41324	4	Index	6
136.1583333333333	0	n/a	81696	KeyDown	41324	1	Little	6
136.2866666666667	0	n/a	81773	KeyDown	41324	3	Middle	6
136.4033333333333	0	n/a	81843	KeyDown	41324	2	Ring	6
136.5066666666667	0	n/a	81905	KeyDown	41324	4	Index	6
136.7450000000000	0	n/a	82048	KeyDown	41324	4	Index	6
136.9100000000000	0	n/a	82147	KeyDown	41324	1	Little	6
137.1250000000000	0	n/a	82276	KeyDown	41324	3	Middle	6
137.2816666666667	0	n/a	82370	KeyDown	41324	2	Ring	6
137.3866666666667	0	n/a	82433	KeyDown	41324	4	Index	6
137.5483333333333	0	n/a	82530	KeyDown	41324	4	Index	6
137.6200000000000	0	n/a	82573	KeyDown	41324	1	Little	6
137.7450000000000	0	n/a	82648	KeyDown	41324	3	Middle	6
137.8783333333333	0	n/a	82728	KeyDown	41324	2	Ring	6
137.9850000000000	0	n/a	82792	KeyDown	41324	4	Index	6
138.1233333333333	0	n/a	82875	StopPractice	41324	n/a	n/a	6
138.1250000000000	0	n/a	82876	StartRest	XXXXX	n/a	n/a	6
148.1666666666667	0	n/a	88901	StopRest	XXXXX	n/a	n/a	6
148.1683333333334	0	UPPT001	88902	StartPractice	41324	n/a	n/a	7
148.6950000000000	0	n/a	89218	KeyDown	41324	4	Index	7
148.7816666666667	0	n/a	89270	KeyDown	41324	1	Little	7
148.9166666666667	0	n/a	89351	KeyDown	41324	3	Middle	7
149.1116666666667	0	n/a	89468	KeyDown	41324	2	Ring	7
149.3650000000000	0	n/a	89620	KeyDown	41324	4	Index	7
149.5616666666667	0	n/a	89738	KeyDown	41324	1	Little	7
149.5750000000000	0	n/a	89746	KeyDown	41324	4	Index	7
149.7750000000000	0	n/a	89866	KeyDown	41324	2	Ring	7
149.9900000000000	0	n/a	89995	KeyDown	41324	3	Middle	7
150.2666666666667	0	n/a	90161	KeyDown	41324	4	Index	7
150.3866666666667	0	n/a	90233	KeyDown	41324	1	Little	7
150.5133333333333	0	n/a	90309	KeyDown	41324	3	Middle	7
150.7616666666667	0	n/a	90458	KeyDown	41324	4	Index	7
150.9583333333333	0	n/a	90576	KeyDown	41324	4	Index	7
151.0766666666667	0	n/a	90647	KeyDown	41324	1	Little	7
151.2550000000000	0	n/a	90754	KeyDown	41324	3	Middle	7
151.3816666666667	0	n/a	90830	KeyDown	41324	2	Ring	7
151.4916666666667	0	n/a	90896	KeyDown	41324	4	Index	7
151.6683333333334	0	n/a	91002	KeyDown	41324	4	Index	7
151.7300000000000	0	n/a	91039	KeyDown	41324	1	Little	7
151.8466666666667	0	n/a	91109	KeyDown	41324	3	Middle	7
151.9700000000000	0	n/a	91183	KeyDown	41324	2	Ring	7
152.0783333333333	0	n/a	91248	KeyDown	41324	4	Index	7
152.2333333333333	0	n/a	91341	KeyDown	41324	4	Index	7
152.3250000000000	0	n/a	91396	KeyDown	41324	1	Little	7
152.4550000000000	0	n/a	91474	KeyDown	41324	3	Middle	7
152.5850000000000	0	n/a	91552	KeyDown	41324	2	Ring	7
152.6966666666667	0	n/a	91619	KeyDown	41324	4	Index	7
152.8700000000000	0	n/a	91723	KeyDown	41324	4	Index	7
152.8950000000000	0	n/a	91738	KeyDown	41324	1	Little	7
153.0366666666667	0	n/a	91823	KeyDown	41324	3	Middle	7
153.1700000000000	0	n/a	91903	KeyDown	41324	2	Ring	7
153.2816666666667	0	n/a	91970	KeyDown	41324	4	Index	7
153.4783333333334	0	n/a	92088	KeyDown	41324	4	Index	7
153.5600000000000	0	n/a	92137	KeyDown	41324	1	Little	7
153.7183333333333	0	n/a	92232	KeyDown	41324	3	Middle	7
153.8900000000000	0	n/a	92335	KeyDown	41324	2	Ring	7
154.0733333333334	0	n/a	92445	KeyDown	41324	4	Index	7
154.3066666666667	0	n/a	92585	KeyDown	41324	4	Index	7
154.5300000000000	0	n/a	92719	KeyDown	41324	1	Little	7
154.6850000000000	0	n/a	92812	KeyDown	41324	3	Middle	7
154.8100000000000	0	n/a	92887	KeyDown	41324	2	Ring	7
154.9250000000000	0	n/a	92956	KeyDown	41324	4	Index	7
155.0933333333333	0	n/a	93057	KeyDown	41324	4	Index	7
155.1350000000000	0	n/a	93082	KeyDown	41324	1	Little	7
155.2666666666667	0	n/a	93161	KeyDown	41324	3	Middle	7
155.3866666666667	0	n/a	93233	KeyDown	41324	2	Ring	7
155.5000000000000	0	n/a	93301	KeyDown	41324	4	Index	7
155.6683333333334	0	n/a	93402	KeyDown	41324	4	Index	7
155.7550000000000	0	n/a	93454	KeyDown	41324	1	Little	7
155.8933333333333	0	n/a	93537	KeyDown	41324	3	Middle	7
156.0266666666667	0	n/a	93617	KeyDown	41324	2	Ring	7
156.1266666666667	0	n/a	93677	KeyDown	41324	4	Index	7
156.2883333333334	0	n/a	93774	KeyDown	41324	4	Index	7
156.3566666666667	0	n/a	93815	KeyDown	41324	1	Little	7
156.4950000000000	0	n/a	93898	KeyDown	41324	3	Middle	7
156.6266666666667	0	n/a	93977	KeyDown	41324	2	Ring	7
156.7400000000000	0	n/a	94045	KeyDown	41324	4	Index	7
156.9966666666667	0	n/a	94199	KeyDown	41324	4	Index	7
157.0566666666667	0	n/a	94235	KeyDown	41324	1	Little	7
157.1966666666667	0	n/a	94319	KeyDown	41324	3	Middle	7
157.3266666666667	0	n/a	94397	KeyDown	41324	2	Ring	7
157.4266666666667	0	n/a	94457	KeyDown	41324	4	Index	7
157.5816666666667	0	n/a	94550	KeyDown	41324	4	Index	7
157.6650000000000	0	n/a	94600	KeyDown	41324	1	Little	7
157.9233333333333	0	n/a	94755	KeyDown	41324	4	Index	7
158.0416666666667	0	n/a	94826	KeyDown	41324	3	Middle	7
158.2150000000000	0	n/a	94930	StopPractice	41324	n/a	n/a	7
158.2166666666667	0	n/a	94931	StartRest	XXXXX	n/a	n/a	7
168.2583333333334	0	n/a	100956	StopRest	XXXXX	n/a	n/a	7
168.2600000000000	0	UPPT001	100957	StartPractice	41324	n/a	n/a	8
168.6966666666667	0	n/a	101219	KeyDown	41324	4	Index	8
168.8366666666667	0	n/a	101303	KeyDown	41324	1	Little	8
169.0316666666667	0	n/a	101420	KeyDown	41324	3	Middle	8
169.1866666666667	0	n/a	101513	KeyDown	41324	2	Ring	8
169.3166666666667	0	n/a	101591	KeyDown	41324	4	Index	8
169.4683333333333	0	n/a	101682	KeyDown	41324	4	Index	8
169.5583333333333	0	n/a	101736	KeyDown	41324	1	Little	8
169.6816666666667	0	n/a	101810	KeyDown	41324	3	Middle	8
169.8283333333333	0	n/a	101898	KeyDown	41324	2	Ring	8
169.9083333333333	0	n/a	101946	KeyDown	41324	4	Index	8
170.0700000000000	0	n/a	102043	KeyDown	41324	4	Index	8
170.1300000000000	0	n/a	102079	KeyDown	41324	1	Little	8
170.2350000000000	0	n/a	102142	KeyDown	41324	3	Middle	8
170.3583333333333	0	n/a	102216	KeyDown	41324	2	Ring	8
170.4516666666667	0	n/a	102272	KeyDown	41324	4	Index	8
170.6033333333334	0	n/a	102363	KeyDown	41324	4	Index	8
170.6700000000000	0	n/a	102403	KeyDown	41324	1	Little	8
170.7733333333333	0	n/a	102465	KeyDown	41324	3	Middle	8
170.9016666666667	0	n/a	102542	KeyDown	41324	2	Ring	8
171.0083333333334	0	n/a	102606	KeyDown	41324	4	Index	8
171.2333333333333	0	n/a	102741	KeyDown	41324	4	Index	8
171.2766666666667	0	n/a	102767	KeyDown	41324	1	Little	8
171.3733333333333	0	n/a	102825	KeyDown	41324	3	Middle	8
171.4866666666667	0	n/a	102893	KeyDown	41324	2	Ring	8
171.5883333333333	0	n/a	102954	KeyDown	41324	4	Index	8
171.7916666666667	0	n/a	103076	KeyDown	41324	4	Index	8
171.8300000000000	0	n/a	103099	KeyDown	41324	1	Little	8
171.9450000000000	0	n/a	103168	KeyDown	41324	3	Middle	8
172.0716666666667	0	n/a	103244	KeyDown	41324	2	Ring	8
172.1583333333333	0	n/a	103296	KeyDown	41324	4	Index	8
172.3083333333333	0	n/a	103386	KeyDown	41324	4	Index	8
172.3733333333333	0	n/a	103425	KeyDown	41324	1	Little	8
172.4833333333333	0	n/a	103491	KeyDown	41324	3	Middle	8
172.6200000000000	0	n/a	103573	KeyDown	41324	2	Ring	8
172.7250000000000	0	n/a	103636	KeyDown	41324	4	Index	8
172.9433333333334	0	n/a	103767	KeyDown	41324	4	Index	8
173.1733333333333	0	n/a	103905	KeyDown	41324	2	Ring	8
173.3083333333333	0	n/a	103986	KeyDown	41324	1	Little	8
173.4383333333333	0	n/a	104064	KeyDown	41324	4	Index	8
173.8533333333334	0	n/a	104313	KeyDown	41324	4	Index	8
173.9933333333333	0	n/a	104397	KeyDown	41324	1	Little	8
174.1583333333333	0	n/a	104496	KeyDown	41324	3	Middle	8
174.2966666666667	0	n/a	104579	KeyDown	41324	2	Ring	8
174.3883333333333	0	n/a	104634	KeyDown	41324	4	Index	8
174.5283333333333	0	n/a	104718	KeyDown	41324	4	Index	8
174.6133333333333	0	n/a	104769	KeyDown	41324	1	Little	8
174.7366666666667	0	n/a	104843	KeyDown	41324	3	Middle	8
174.8600000000000	0	n/a	104917	KeyDown	41324	2	Ring	8
174.9816666666667	0	n/a	104990	KeyDown	41324	4	Index	8
175.1366666666667	0	n/a	105083	KeyDown	41324	4	Index	8
175.2183333333333	0	n/a	105132	KeyDown	41324	1	Little	8
175.3416666666667	0	n/a	105206	KeyDown	41324	3	Middle	8
175.4683333333333	0	n/a	105282	KeyDown	41324	2	Ring	8
175.5650000000000	0	n/a	105340	KeyDown	41324	4	Index	8
175.7550000000000	0	n/a	105454	KeyDown	41324	4	Index	8
175.8083333333333	0	n/a	105486	KeyDown	41324	1	Little	8
175.9666666666667	0	n/a	105581	KeyDown	41324	3	Middle	8
176.1166666666667	0	n/a	105671	KeyDown	41324	2	Ring	8
176.2166666666667	0	n/a	105731	KeyDown	41324	4	Index	8
176.3833333333334	0	n/a	105831	KeyDown	41324	4	Index	8
176.4466666666667	0	n/a	105869	KeyDown	41324	1	Little	8
176.5783333333333	0	n/a	105948	KeyDown	41324	3	Middle	8
176.7216666666667	0	n/a	106034	KeyDown	41324	2	Ring	8
176.8716666666667	0	n/a	106124	KeyDown	41324	4	Index	8
177.0483333333333	0	n/a	106230	KeyDown	41324	4	Index	8
177.1416666666667	0	n/a	106286	KeyDown	41324	1	Little	8
177.2716666666667	0	n/a	106364	KeyDown	41324	3	Middle	8
177.3566666666667	0	n/a	106415	KeyDown	41324	4	Index	8
177.4233333333333	0	n/a	106455	KeyDown	41324	2	Ring	8
177.5583333333333	0	n/a	106536	KeyDown	41324	4	Index	8
177.7933333333334	0	n/a	106677	KeyDown	41324	4	Index	8
177.8716666666667	0	n/a	106724	KeyDown	41324	1	Little	8
178.0233333333333	0	n/a	106815	KeyDown	41324	3	Middle	8
178.1683333333334	0	n/a	106902	KeyDown	41324	2	Ring	8
178.3066666666667	0	n/a	106985	StopPractice	41324	n/a	n/a	8
178.3083333333333	0	n/a	106986	StartRest	XXXXX	n/a	n/a	8
188.3500000000000	0	n/a	113011	StopRest	XXXXX	n/a	n/a	8
188.3516666666667	0	UPPT001	113012	StartPractice	41324	n/a	n/a	9
188.7583333333334	0	n/a	113256	KeyDown	41324	4	Index	9
188.8500000000000	0	n/a	113311	KeyDown	41324	1	Little	9
188.9800000000000	0	n/a	113389	KeyDown	41324	3	Middle	9
189.1633333333334	0	n/a	113499	KeyDown	41324	2	Ring	9
189.3116666666667	0	n/a	113588	KeyDown	41324	4	Index	9
189.5683333333334	0	n/a	113742	KeyDown	41324	1	Little	9
189.6716666666667	0	n/a	113804	KeyDown	41324	3	Middle	9
189.8050000000000	0	n/a	113884	KeyDown	41324	2	Ring	9
189.9050000000000	0	n/a	113944	KeyDown	41324	4	Index	9
190.1183333333333	0	n/a	114072	KeyDown	41324	4	Index	9
190.1633333333334	0	n/a	114099	KeyDown	41324	1	Little	9
190.2900000000000	0	n/a	114175	KeyDown	41324	3	Middle	9
190.4150000000000	0	n/a	114250	KeyDown	41324	2	Ring	9
190.5050000000000	0	n/a	114304	KeyDown	41324	4	Index	9
190.6633333333334	0	n/a	114399	KeyDown	41324	4	Index	9
190.7400000000000	0	n/a	114445	KeyDown	41324	1	Little	9
190.8483333333334	0	n/a	114510	KeyDown	41324	3	Middle	9
190.9733333333334	0	n/a	114585	KeyDown	41324	2	Ring	9
191.0750000000000	0	n/a	114646	KeyDown	41324	4	Index	9
191.2600000000000	0	n/a	114757	KeyDown	41324	4	Index	9
191.3150000000000	0	n/a	114790	KeyDown	41324	1	Little	9
191.4200000000000	0	n/a	114853	KeyDown	41324	3	Middle	9
191.5416666666667	0	n/a	114926	KeyDown	41324	2	Ring	9
191.6400000000000	0	n/a	114985	KeyDown	41324	4	Index	9
191.8733333333333	0	n/a	115125	KeyDown	41324	1	Little	9
192.0000000000000	0	n/a	115201	KeyDown	41324	3	Middle	9
192.1350000000000	0	n/a	115282	KeyDown	41324	2	Ring	9
192.2350000000000	0	n/a	115342	KeyDown	41324	4	Index	9
192.4716666666667	0	n/a	115484	KeyDown	41324	4	Index	9
192.4950000000000	0	n/a	115498	KeyDown	41324	1	Little	9
192.6500000000000	0	n/a	115591	KeyDown	41324	3	Middle	9
192.8233333333334	0	n/a	115695	KeyDown	41324	2	Ring	9
193.0383333333334	0	n/a	115824	KeyDown	41324	4	Index	9
193.2433333333333	0	n/a	115947	KeyDown	41324	4	Index	9
193.4833333333333	0	n/a	116091	KeyDown	41324	1	Little	9
193.7966666666667	0	n/a	116279	KeyDown	41324	3	Middle	9
193.9133333333334	0	n/a	116349	KeyDown	41324	2	Ring	9
194.0133333333333	0	n/a	116409	KeyDown	41324	4	Index	9
194.1716666666667	0	n/a	116504	KeyDown	41324	4	Index	9
194.2366666666667	0	n/a	116543	KeyDown	41324	1	Little	9
194.3966666666667	0	n/a	116639	KeyDown	41324	3	Middle	9
194.5300000000000	0	n/a	116719	KeyDown	41324	2	Ring	9
194.6416666666667	0	n/a	116786	KeyDown	41324	4	Index	9
194.8750000000000	0	n/a	116926	KeyDown	41324	4	Index	9
194.8900000000000	0	n/a	116935	KeyDown	41324	1	Little	9
195.0216666666667	0	n/a	117014	KeyDown	41324	3	Middle	9
195.1583333333334	0	n/a	117096	KeyDown	41324	2	Ring	9
195.2750000000000	0	n/a	117166	KeyDown	41324	4	Index	9
195.4400000000000	0	n/a	117265	KeyDown	41324	4	Index	9
195.5283333333333	0	n/a	117318	KeyDown	41324	1	Little	9
195.6333333333334	0	n/a	117381	KeyDown	41324	3	Middle	9
195.7533333333334	0	n/a	117453	KeyDown	41324	2	Ring	9
195.8683333333333	0	n/a	117522	KeyDown	41324	4	Index	9
196.0450000000000	0	n/a	117628	KeyDown	41324	4	Index	9
196.1316666666667	0	n/a	117680	KeyDown	41324	1	Little	9
196.2750000000000	0	n/a	117766	KeyDown	41324	3	Middle	9
196.4316666666667	0	n/a	117860	KeyDown	41324	2	Ring	9
196.5383333333334	0	n/a	117924	KeyDown	41324	4	Index	9
196.7033333333333	0	n/a	118023	KeyDown	41324	4	Index	9
196.7833333333334	0	n/a	118071	KeyDown	41324	1	Little	9
196.9183333333334	0	n/a	118152	KeyDown	41324	3	Middle	9
197.0616666666667	0	n/a	118238	KeyDown	41324	2	Ring	9
197.1783333333333	0	n/a	118308	KeyDown	41324	4	Index	9
197.3616666666667	0	n/a	118418	KeyDown	41324	4	Index	9
197.4183333333334	0	n/a	118452	KeyDown	41324	1	Little	9
197.5683333333334	0	n/a	118542	KeyDown	41324	3	Middle	9
197.7083333333333	0	n/a	118626	KeyDown	41324	2	Ring	9
197.8300000000000	0	n/a	118699	KeyDown	41324	4	Index	9
198.0150000000000	0	n/a	118810	KeyDown	41324	4	Index	9
198.1233333333333	0	n/a	118875	KeyDown	41324	1	Little	9
198.3150000000000	0	n/a	118990	KeyDown	41324	3	Middle	9
198.3983333333333	0	n/a	119040	StopPractice	41324	n/a	n/a	9
198.4000000000000	0	n/a	119041	StartRest	XXXXX	n/a	n/a	9
208.4433333333334	0	n/a	125067	StopRest	XXXXX	n/a	n/a	9
