onset	duration	channel	onset_sample_idx	event_type	target_sequence	keypress_id	finger_label	trial_number
19.6166666666667	0	UPPT001	11771	StartPractice	41324	n/a	n/a	1
22.3183333333333	0	n/a	13392	KeyDown	41324	4	Index	1
22.7600000000000	0	n/a	13657	KeyDown	41324	1	Little	1
23.3183333333333	0	n/a	13992	KeyDown	41324	3	Middle	1
24.3250000000000	0	n/a	14596	KeyDown	41324	4	Index	1
29.6550000000000	0	n/a	17794	StopPractice	41324	n/a	n/a	1
29.6566666666667	0	n/a	17795	StartRest	XXXXX	n/a	n/a	1
39.7083333333333	0	n/a	23826	StopRest	XXXXX	n/a	n/a	1
39.7100000000000	0	UPPT001	23827	StartPractice	41324	n/a	n/a	2
43.2766666666667	0	n/a	25967	KeyDown	41324	4	Index	2
43.5883333333333	0	n/a	26154	KeyDown	41324	1	Little	2
43.9883333333333	0	n/a	26394	KeyDown	41324	3	Middle	2
44.9383333333333	0	n/a	26964	KeyDown	41324	4	Index	2
49.7483333333333	0	n/a	29850	StopPractice	41324	n/a	n/a	2
49.7500000000000	0	n/a	29851	StartRest	XXXXX	n/a	n/a	2
59.7816666666667	0	n/a	35870	StopRest	XXXXX	n/a	n/a	2
59.7833333333333	0	UPPT001	35871	StartPractice	41324	n/a	n/a	3
61.3650000000000	0	n/a	36820	KeyDown	41324	4	Index	3
61.7466666666667	0	n/a	37049	KeyDown	41324	1	Little	3
62.3800000000000	0	n/a	37429	KeyDown	41324	3	Middle	3
64.2816666666667	0	n/a	38570	KeyDown	41324	4	Index	3
69.8216666666667	0	n/a	41894	StopPractice	41324	n/a	n/a	3
69.8233333333333	0	n/a	41895	StartRest	XXXXX	n/a	n/a	3
79.8566666666667	0	n/a	47915	StopRest	XXXXX	n/a	n/a	3
79.8583333333333	0	UPPT001	47916	StartPractice	41324	n/a	n/a	4
84.1400000000000	0	n/a	50485	KeyDown	41324	4	Index	4
84.4700000000000	0	n/a	50683	KeyDown	41324	1	Little	4
84.7516666666667	0	n/a	50852	KeyDown	41324	3	Middle	4
85.0100000000000	0	n/a	51007	KeyDown	41324	2	Ring	4
85.2633333333333	0	n/a	51159	KeyDown	41324	4	Index	4
85.7033333333333	0	n/a	51423	KeyDown	41324	4	Index	4
85.9216666666667	0	n/a	51554	KeyDown	41324	1	Little	4
86.3566666666667	0	n/a	51815	KeyDown	41324	3	Middle	4
86.6050000000000	0	n/a	51964	KeyDown	41324	2	Ring	4
86.8500000000000	0	n/a	52111	KeyDown	41324	4	Index	4
87.0983333333333	0	n/a	52260	KeyDown	41324	4	Index	4
87.2950000000000	0	n/a	52378	KeyDown	41324	1	Little	4
88.0966666666667	0	n/a	52859	KeyDown	41324	3	Middle	4
88.3283333333333	0	n/a	52998	KeyDown	41324	2	Ring	4
88.5500000000000	0	n/a	53131	KeyDown	41324	4	Index	4
88.7716666666667	0	n/a	53264	KeyDown	41324	4	Index	4
88.9200000000000	0	n/a	53353	KeyDown	41324	1	Little	4
89.3600000000000	0	n/a	53617	KeyDown	41324	3	Middle	4
89.5283333333333	0	n/a	53718	KeyDown	41324	2	Ring	4
89.6916666666667	0	n/a	53816	KeyDown	41324	4	Index	4
89.8966666666667	0	n/a	53939	StopPractice	41324	n/a	n/a	4
89.8983333333333	0	n/a	53940	StartRest	XXXXX	n/a	n/a	4
99.9316666666667	0	n/a	59960	StopRest	XXXXX	n/a	n/a	4
99.9333333333333	0	UPPT001	59961	StartPractice	41324	n/a	n/a	5
100.8416666666667	0	n/a	60506	KeyDown	41324	4	Index	5
101.0700000000000	0	n/a	60643	KeyDown	41324	1	Little	5
101.4300000000000	0	n/a	60859	KeyDown	41324	3	Middle	5
101.6616666666667	0	n/a	60998	KeyDown	41324	2	Ring	5
101.8866666666667	0	n/a	61133	KeyDown	41324	4	Index	5
102.1283333333333	0	n/a	61278	KeyDown	41324	4	Index	5
102.3016666666667	0	n/a	61382	KeyDown	41324	1	Little	5
102.6416666666667	0	n/a	61586	KeyDown	41324	3	Middle	5
102.8116666666667	0	n/a	61688	KeyDown	41324	2	Ring	5
102.9766666666667	0	n/a	61787	KeyDown	41324	4	Index	5
103.2300000000000	0	n/a	61939	KeyDown	41324	4	Index	5
103.3716666666667	0	n/a	62024	KeyDown	41324	1	Little	5
103.7166666666667	0	n/a	62231	KeyDown	41324	3	Middle	5
103.8983333333333	0	n/a	62340	KeyDown	41324	2	Ring	5
104.0750000000000	0	n/a	62446	KeyDown	41324	4	Index	5
104.3566666666667	0	n/a	62615	KeyDown	41324	4	Index	5
104.5050000000000	0	n/a	62704	KeyDown	41324	1	Little	5
105.3150000000000	0	n/a	63190	KeyDown	41324	3	Middle	5
105.5566666666667	0	n/a	63335	KeyDown	41324	2	Ring	5
105.7866666666667	0	n/a	63473	KeyDown	41324	4	Index	5
106.0466666666667	0	n/a	63629	KeyDown	41324	4	Index	5
106.2250000000000	0	n/a	63736	KeyDown	41324	1	Little	5
106.5333333333333	0	n/a	63921	KeyDown	41324	3	Middle	5
106.7866666666667	0	n/a	64073	KeyDown	41324	2	Ring	5
107.0383333333333	0	n/a	64224	KeyDown	41324	4	Index	5
107.3316666666667	0	n/a	64400	KeyDown	41324	4	Index	5
107.5733333333333	0	n/a	64545	KeyDown	41324	1	Little	5
107.8383333333333	0	n/a	64704	KeyDown	41324	3	Middle	5
108.0650000000000	0	n/a	64840	KeyDown	41324	2	Ring	5
108.2883333333333	0	n/a	64974	KeyDown	41324	4	Index	5
108.5566666666667	0	n/a	65135	KeyDown	41324	4	Index	5
108.8000000000000	0	n/a	65281	KeyDown	41324	1	Little	5
109.1800000000000	0	n/a	65509	KeyDown	41324	3	Middle	5
109.3900000000000	0	n/a	65635	KeyDown	41324	2	Ring	5
109.5916666666667	0	n/a	65756	KeyDown	41324	4	Index	5
109.8450000000000	0	n/a	65908	KeyDown	41324	4	Index	5
109.9716666666667	0	n/a	65984	StopPractice	41324	n/a	n/a	5
109.9733333333333	0	n/a	65985	StartRest	XXXXX	n/a	n/a	5
120.0066666666667	0	n/a	72005	StopRest	XXXXX	n/a	n/a	5
120.0083333333333	0	UPPT001	72006	StartPractice	41324	n/a	n/a	6
120.9916666666667	0	n/a	72596	KeyDown	41324	4	Index	6
121.1966666666667	0	n/a	72719	KeyDown	41324	1	Little	6
121.5300000000000	0	n/a	72919	KeyDown	41324	3	Middle	6
121.7200000000000	0	n/a	73033	KeyDown	41324	2	Ring	6
121.9050000000000	0	n/a	73144	KeyDown	41324	4	Index	6
122.2050000000000	0	n/a	73324	KeyDown	41324	4	Index	6
122.4200000000000	0	n/a	73453	KeyDown	41324	1	Little	6
122.6466666666667	0	n/a	73589	KeyDown	41324	3	Middle	6
122.8466666666667	0	n/a	73709	KeyDown	41324	2	Ring	6
123.0433333333333	0	n/a	73827	KeyDown	41324	4	Index	6
123.2616666666667	0	n/a	73958	KeyDown	41324	4	Index	6
123.4666666666667	0	n/a	74081	KeyDown	41324	1	Little	6
123.9016666666667	0	n/a	74342	KeyDown	41324	3	Middle	6
124.0900000000000	0	n/a	74455	KeyDown	41324	2	Ring	6
124.2716666666667	0	n/a	74564	KeyDown	41324	4	Index	6
124.5100000000000	0	n/a	74707	KeyDown	41324	4	Index	6
124.6683333333333	0	n/a	74802	KeyDown	41324	1	Little	6
124.9200000000000	0	n/a	74953	KeyDown	41324	3	Middle	6
125.1050000000000	0	n/a	75064	KeyDown	41324	2	Ring	6
125.2850000000000	0	n/a	75172	KeyDown	41324	4	Index	6
125.5450000000000	0	n/a	75328	KeyDown	41324	4	Index	6
125.7416666666667	0	n/a	75446	KeyDown	41324	1	Little	6
126.0066666666667	0	n/a	75605	KeyDown	41324	3	Middle	6
126.1966666666667	0	n/a	75719	KeyDown	41324	2	Ring	6
126.3816666666667	0	n/a	75830	KeyDown	41324	4	Index	6
126.6350000000000	0	n/a	75982	KeyDown	41324	4	Index	6
126.8200000000000	0	n/a	76093	KeyDown	41324	1	Little	6
127.0633333333333	0	n/a	76239	KeyDown	41324	3	Middle	6
127.2600000000000	0	n/a	76357	KeyDown	41324	2	Ring	6
127.4516666666667	0	n/a	76472	KeyDown	41324	4	Index	6
127.6866666666667	0	n/a	76613	KeyDown	41324	4	Index	6
127.8500000000000	0	n/a	76711	KeyDown	41324	1	Little	6
128.1450000000000	0	n/a	76888	KeyDown	41324	3	Middle	6
128.4750000000000	0	n/a	77086	KeyDown	41324	2	Ring	6
128.8016666666667	0	n/a	77282	KeyDown	41324	4	Index	6
129.0933333333333	0	n/a	77457	KeyDown	41324	4	Index	6
129.2316666666667	0	n/a	77540	KeyDown	41324	1	Little	6
129.4366666666667	0	n/a	77663	KeyDown	41324	3	Middle	6
129.6633333333334	0	n/a	77799	KeyDown	41324	2	Ring	6
129.8866666666667	0	n/a	77933	KeyDown	41324	4	Index	6
130.0466666666667	0	n/a	78029	StopPractice	41324	n/a	n/a	6
130.0483333333333	0	n/a	78030	StartRest	XXXXX	n/a	n/a	6
140.0816666666667	0	n/a	84050	StopRest	XXXXX	n/a	n/a	6
140.0833333333333	0	UPPT001	84051	StartPractice	41324	n/a	n/a	7
140.7683333333333	0	n/a	84462	KeyDown	41324	4	Index	7
140.9350000000000	0	n/a	84562	KeyDown	41324	1	Little	7
141.2083333333333	0	n/a	84726	KeyDown	41324	3	Middle	7
141.3650000000000	0	n/a	84820	KeyDown	41324	2	Ring	7
141.5183333333333	0	n/a	84912	KeyDown	41324	4	Index	7
141.7466666666667	0	n/a	85049	KeyDown	41324	4	Index	7
141.9133333333334	0	n/a	85149	KeyDown	41324	1	Little	7
142.1333333333334	0	n/a	85281	KeyDown	41324	3	Middle	7
142.2933333333334	0	n/a	85377	KeyDown	41324	2	Ring	7
142.4500000000000	0	n/a	85471	KeyDown	41324	4	Index	7
142.6783333333333	0	n/a	85608	KeyDown	41324	4	Index	7
142.8466666666667	0	n/a	85709	KeyDown	41324	1	Little	7
143.0683333333334	0	n/a	85842	KeyDown	41324	3	Middle	7
143.2433333333333	0	n/a	85947	KeyDown	41324	2	Ring	7
143.4150000000000	0	n/a	86050	KeyDown	41324	4	Index	7
143.6633333333334	0	n/a	86199	KeyDown	41324	4	Index	7
143.9316666666667	0	n/a	86360	KeyDown	41324	1	Little	7
144.2300000000000	0	n/a	86539	KeyDown	41324	3	Middle	7
144.3733333333333	0	n/a	86625	KeyDown	41324	2	Ring	7
144.5116666666667	0	n/a	86708	KeyDown	41324	4	Index	7
144.7583333333334	0	n/a	86856	KeyDown	41324	4	Index	7
144.9516666666667	0	n/a	86972	KeyDown	41324	1	Little	7
145.2166666666667	0	n/a	87131	KeyDown	41324	3	Middle	7
145.4466666666667	0	n/a	87269	KeyDown	41324	2	Ring	7
145.6733333333333	0	n/a	87405	KeyDown	41324	4	Index	7
145.8800000000000	0	n/a	87529	KeyDown	41324	4	Index	7
146.0616666666667	0	n/a	87638	KeyDown	41324	1	Little	7
146.3000000000000	0	n/a	87781	KeyDown	41324	3	Middle	7
146.4600000000000	0	n/a	87877	KeyDown	41324	2	Ring	7
146.6183333333333	0	n/a	87972	KeyDown	41324	4	Index	7
146.8816666666667	0	n/a	88130	KeyDown	41324	4	Index	7
147.0633333333333	0	n/a	88239	KeyDown	41324	1	Little	7
147.3400000000000	0	n/a	88405	KeyDown	41324	3	Middle	7
147.4966666666667	0	n/a	88499	KeyDown	41324	2	Ring	7
147.6516666666667	0	n/a	88592	KeyDown	41324	4	Index	7
147.8866666666667	0	n/a	88733	KeyDown	41324	4	Index	7
148.0233333333333	0	n/a	88815	KeyDown	41324	1	Little	7
148.2433333333333	0	n/a	88947	KeyDown	41324	3	Middle	7
148.3916666666667	0	n/a	89036	KeyDown	41324	2	Ring	7
148.5366666666667	0	n/a	89123	KeyDown	41324	4	Index	7
148.8133333333333	0	n/a	89289	KeyDown	41324	4	Index	7
149.0416666666667	0	n/a	89426	KeyDown	41324	1	Little	7
149.2900000000000	0	n/a	89575	KeyDown	41324	3	Middle	7
149.4850000000000	0	n/a	89692	KeyDown	41324	2	Ring	7
149.6750000000000	0	n/a	89806	KeyDown	41324	4	Index	7
149.9016666666667	0	n/a	89942	KeyDown	41324	4	Index	7
150.0416666666667	0	n/a	90026	KeyDown	41324	1	Little	7
150.1216666666667	0	n/a	90074	StopPractice	41324	n/a	n/a	7
150.1233333333333	0	n/a	90075	StartRest	XXXXX	n/a	n/a	7
160.1566666666667	0	n/a	96095	StopRest	XXXXX	n/a	n/a	7
160.1583333333333	0	UPPT001	96096	StartPractice	41324	n/a	n/a	8
161.1766666666667	0	n/a	96707	KeyDown	41324	4	Index	8
161.3633333333333	0	n/a	96819	KeyDown	41324	1	Little	8
161.6000000000000	0	n/a	96961	KeyDown	41324	3	Middle	8
161.8000000000000	0	n/a	97081	KeyDown	41324	2	Ring	8
161.9966666666667	0	n/a	97199	KeyDown	41324	4	Index	8
162.1766666666667	0	n/a	97307	KeyDown	41324	4	Index	8
162.3650000000000	0	n/a	97420	KeyDown	41324	1	Little	8
162.6100000000000	0	n/a	97567	KeyDown	41324	3	Middle	8
162.8100000000000	0	n/a	97687	KeyDown	41324	2	Ring	8
163.0066666666667	0	n/a	97805	KeyDown	41324	4	Index	8
163.2083333333333	0	n/a	97926	KeyDown	41324	4	Index	8
163.6583333333333	0	n/a	98196	KeyDown	41324	1	Little	8
163.9233333333333	0	n/a	98355	KeyDown	41324	3	Middle	8
164.1033333333334	0	n/a	98463	KeyDown	41324	2	Ring	8
164.2766666666667	0	n/a	98567	KeyDown	41324	4	Index	8
164.4716666666667	0	n/a	98684	KeyDown	41324	4	Index	8
164.5933333333333	0	n/a	98757	KeyDown	41324	1	Little	8
164.8566666666667	0	n/a	98915	KeyDown	41324	3	Middle	8
165.0633333333333	0	n/a	99039	KeyDown	41324	2	Ring	8
165.2683333333333	0	n/a	99162	KeyDown	41324	4	Index	8
165.4916666666667	0	n/a	99296	KeyDown	41324	4	Index	8
165.6400000000000	0	n/a	99385	KeyDown	41324	1	Little	8
165.9433333333334	0	n/a	99567	KeyDown	41324	3	Middle	8
166.1400000000000	0	n/a	99685	KeyDown	41324	2	Ring	8
166.3350000000000	0	n/a	99802	KeyDown	41324	4	Index	8
166.5550000000000	0	n/a	99934	KeyDown	41324	4	Index	8
166.6933333333334	0	n/a	100017	KeyDown	41324	1	Little	8
166.9716666666667	0	n/a	100184	KeyDown	41324	3	Middle	8
167.1566666666667	0	n/a	100295	KeyDown	41324	2	Ring	8
167.3383333333333	0	n/a	100404	KeyDown	41324	4	Index	8
167.5516666666667	0	n/a	100532	KeyDown	41324	4	Index	8
167.6833333333333	0	n/a	100611	KeyDown	41324	1	Little	8
168.1550000000000	0	n/a	100894	KeyDown	41324	3	Middle	8
168.3600000000000	0	n/a	101017	KeyDown	41324	2	Ring	8
168.5600000000000	0	n/a	101137	KeyDown	41324	4	Index	8
168.8000000000000	0	n/a	101281	KeyDown	41324	4	Index	8
168.9500000000000	0	n/a	101371	KeyDown	41324	1	Little	8
169.1816666666667	0	n/a	101510	KeyDown	41324	3	Middle	8
169.3766666666667	0	n/a	101627	KeyDown	41324	2	Ring	8
169.5700000000000	0	n/a	101743	KeyDown	41324	4	Index	8
169.7950000000000	0	n/a	101878	KeyDown	41324	4	Index	8
169.9250000000000	0	n/a	101956	KeyDown	41324	1	Little	8
170.1966666666667	0	n/a	102119	StopPractice	41324	n/a	n/a	8
170.1983333333334	0	n/a	102120	StartRest	XXXXX	n/a	n/a	8
180.2316666666667	0	n/a	108140	StopRest	XXXXX	n/a	n/a	8
180.2333333333333	0	UPPT001	108141	StartPractice	41324	n/a	n/a	9
181.0233333333333	0	n/a	108615	KeyDown	41324	4	Index	9
181.1633333333334	0	n/a	108699	KeyDown	41324	1	Little	9
181.4333333333333	0	n/a	108861	KeyDown	41324	3	Middle	9
181.5966666666667	0	n/a	108959	KeyDown	41324	2	Ring	9
181.7566666666667	0	n/a	109055	KeyDown	41324	4	Index	9
181.9750000000000	0	n/a	109186	KeyDown	41324	4	Index	9
182.1066666666667	0	n/a	109265	KeyDown	41324	1	Little	9
182.3416666666667	0	n/a	109406	KeyDown	41324	3	Middle	9
182.5200000000000	0	n/a	109513	KeyDown	41324	2	Ring	9
182.6950000000000	0	n/a	109618	KeyDown	41324	4	Index	9
182.8950000000000	0	n/a	109738	KeyDown	41324	4	Index	9
183.0066666666667	0	n/a	109805	KeyDown	41324	1	Little	9
183.5750000000000	0	n/a	110146	KeyDown	41324	3	Middle	9
183.7766666666667	0	n/a	110267	KeyDown	41324	2	Ring	9
183.9716666666667	0	n/a	110384	KeyDown	41324	4	Index	9
184.2266666666667	0	n/a	110537	KeyDown	41324	1	Little	9
184.8650000000000	0	n/a	110920	KeyDown	41324	4	Index	9
185.0450000000000	0	n/a	111028	KeyDown	41324	1	Little	9
185.3566666666667	0	n/a	111215	KeyDown	41324	3	Middle	9
185.6250000000000	0	n/a	111376	KeyDown	41324	2	Ring	9
185.8900000000000	0	n/a	111535	KeyDown	41324	4	Index	9
186.1100000000000	0	n/a	111667	KeyDown	41324	4	Index	9
186.2933333333334	0	n/a	111777	KeyDown	41324	1	Little	9
186.5866666666667	0	n/a	111953	KeyDown	41324	3	Middle	9
186.9366666666667	0	n/a	112163	KeyDown	41324	2	Ring	9
187.2816666666667	0	n/a	112370	KeyDown	41324	4	Index	9
187.5400000000000	0	n/a	112525	KeyDown	41324	4	Index	9
187.8216666666667	0	n/a	112694	KeyDown	41324	1	Little	9
188.3400000000000	0	n/a	113005	KeyDown	41324	3	Middle	9
188.6850000000000	0	n/a	113212	KeyDown	41324	2	Ring	9
189.0250000000000	0	n/a	113416	KeyDown	41324	4	Index	9
189.2300000000000	0	n/a	113539	KeyDown	41324	4	Index	9
189.3700000000000	0	n/a	113623	KeyDown	41324	1	Little	9
190.2716666666667	0	n/a	114164	StopPractice	41324	n/a	n/a	9
190.2733333333333	0	n/a	114165	StartRest	XXXXX	n/a	n/a	9
200.3066666666667	0	n/a	120185	StopRest	XXXXX	n/a	n/a	9
200.3083333333333	0	UPPT001	120186	StartPractice	41324	n/a	n/a	10
200.9250000000000	0	n/a	120556	KeyDown	41324	4	Index	10
201.1716666666667	0	n/a	120704	KeyDown	41324	1	Little	10
201.4400000000000	0	n/a	120865	KeyDown	41324	3	Middle	10
201.6500000000000	0	n/a	120991	KeyDown	41324	2	Ring	10
201.8566666666667	0	n/a	121115	KeyDown	41324	4	Index	10
202.0683333333334	0	n/a	121242	KeyDown	41324	4	Index	10
202.2700000000000	0	n/a	121363	KeyDown	41324	1	Little	10
202.5150000000000	0	n/a	121510	KeyDown	41324	3	Middle	10
202.7033333333333	0	n/a	121623	KeyDown	41324	2	Ring	10
202.8900000000000	0	n/a	121735	KeyDown	41324	4	Index	10
203.1166666666667	0	n/a	121871	KeyDown	41324	4	Index	10
203.2983333333333	0	n/a	121980	KeyDown	41324	1	Little	10
203.5500000000000	0	n/a	122131	KeyDown	41324	3	Middle	10
203.7400000000000	0	n/a	122245	KeyDown	41324	2	Ring	10
203.9266666666667	0	n/a	122357	KeyDown	41324	4	Index	10
204.1683333333334	0	n/a	122502	KeyDown	41324	4	Index	10
204.3416666666667	0	n/a	122606	KeyDown	41324	1	Little	10
204.5850000000000	0	n/a	122752	KeyDown	41324	3	Middle	10
204.7800000000000	0	n/a	122869	KeyDown	41324	2	Ring	10
204.9700000000000	0	n/a	122983	KeyDown	41324	4	Index	10
205.1833333333333	0	n/a	123111	KeyDown	41324	4	Index	10
205.3416666666667	0	n/a	123206	KeyDown	41324	1	Little	10
205.5916666666667	0	n/a	123356	KeyDown	41324	3	Middle	10
205.7816666666667	0	n/a	123470	KeyDown	41324	2	Ring	10
205.9683333333333	0	n/a	123582	KeyDown	41324	4	Index	10
206.1766666666667	0	n/a	123707	KeyDown	41324	4	Index	10
206.3366666666667	0	n/a	123803	KeyDown	41324	1	Little	10
206.5433333333334	0	n/a	123927	KeyDown	41324	3	Middle	10
206.7133333333333	0	n/a	124029	KeyDown	41324	2	Ring	10
206.8800000000000	0	n/a	124129	KeyDown	41324	4	Index	10
207.1166666666667	0	n/a	124271	KeyDown	41324	4	Index	10
207.2616666666667	0	n/a	124358	KeyDown	41324	1	Little	10
207.5100000000000	0	n/a	124507	KeyDown	41324	3	Middle	10
207.6883333333333	0	n/a	124614	KeyDown	41324	2	Ring	10
207.8616666666667	0	n/a	124718	KeyDown	41324	4	Index	10
208.0666666666667	0	n/a	124841	KeyDown	41324	4	Index	10
208.2633333333333	0	n/a	124959	KeyDown	41324	1	Little	10
208.4716666666667	0	n/a	125084	KeyDown	41324	3	Middle	10
208.6466666666667	0	n/a	125189	KeyDown	41324	2	Ring	10
208.8166666666667	0	n/a	125291	KeyDown	41324	4	Index	10
209.0250000000000	0	n/a	125416	KeyDown	41324	4	Index	10
209.2066666666667	0	n/a	125525	KeyDown	41324	1	Little	10
209.4466666666667	0	n/a	125669	KeyDown	41324	3	Middle	10
209.6166666666667	0	n/a	125771	KeyDown	41324	2	Ring	10
209.7850000000000	0	n/a	125872	KeyDown	41324	4	Index	10
209.9916666666667	0	n/a	125996	KeyDown	41324	4	Index	10
210.1300000000000	0	n/a	126079	KeyDown	41324	1	Little	10
210.3466666666667	0	n/a	126209	StopPractice	41324	n/a	n/a	10
210.3483333333334	0	n/a	126210	StartRest	XXXXX	n/a	n/a	10
220.3816666666667	0	n/a	132230	StopRest	XXXXX	n/a	n/a	10
220.3833333333334	0	UPPT001	132231	StartPractice	41324	n/a	n/a	11
221.0816666666667	0	n/a	132650	KeyDown	41324	4	Index	11
221.2966666666667	0	n/a	132779	KeyDown	41324	1	Little	11
221.5216666666667	0	n/a	132914	KeyDown	41324	3	Middle	11
221.7200000000000	0	n/a	133033	KeyDown	41324	2	Ring	11
221.9150000000000	0	n/a	133150	KeyDown	41324	4	Index	11
222.1333333333334	0	n/a	133281	KeyDown	41324	4	Index	11
222.3150000000000	0	n/a	133390	KeyDown	41324	1	Little	11
222.5300000000000	0	n/a	133519	KeyDown	41324	3	Middle	11
222.7066666666667	0	n/a	133625	KeyDown	41324	2	Ring	11
222.8800000000000	0	n/a	133729	KeyDown	41324	4	Index	11
223.0933333333333	0	n/a	133857	KeyDown	41324	4	Index	11
223.2566666666667	0	n/a	133955	KeyDown	41324	1	Little	11
223.4850000000000	0	n/a	134092	KeyDown	41324	3	Middle	11
223.6750000000000	0	n/a	134206	KeyDown	41324	2	Ring	11
223.8600000000000	0	n/a	134317	KeyDown	41324	4	Index	11
224.0933333333333	0	n/a	134457	KeyDown	41324	4	Index	11
224.2200000000000	0	n/a	134533	KeyDown	41324	1	Little	11
224.4916666666667	0	n/a	134696	KeyDown	41324	3	Middle	11
224.6883333333334	0	n/a	134814	KeyDown	41324	2	Ring	11
224.8816666666667	0	n/a	134930	KeyDown	41324	4	Index	11
225.1066666666667	0	n/a	135065	KeyDown	41324	4	Index	11
225.2466666666667	0	n/a	135149	KeyDown	41324	1	Little	11
225.4900000000000	0	n/a	135295	KeyDown	41324	3	Middle	11
225.7333333333333	0	n/a	135441	KeyDown	41324	2	Ring	11
225.9733333333334	0	n/a	135585	KeyDown	41324	4	Index	11
226.2133333333333	0	n/a	135729	KeyDown	41324	4	Index	11
226.3600000000000	0	n/a	135817	KeyDown	41324	1	Little	11
226.6150000000000	0	n/a	135970	KeyDown	41324	3	Middle	11
226.8166666666667	0	n/a	136091	KeyDown	41324	2	Ring	11
227.0133333333333	0	n/a	136209	KeyDown	41324	4	Index	11
227.2333333333333	0	n/a	136341	KeyDown	41324	4	Index	11
227.3600000000000	0	n/a	136417	KeyDown	41324	1	Little	11
227.6300000000000	0	n/a	136579	KeyDown	41324	3	Middle	11
227.8116666666667	0	n/a	136688	KeyDown	41324	2	Ring	11
227.9916666666667	0	n/a	136796	KeyDown	41324	4	Index	11
228.2116666666667	0	n/a	136928	KeyDown	41324	4	Index	11
228.3266666666667	0	n/a	136997	KeyDown	41324	1	Little	11
228.5416666666667	0	n/a	137126	KeyDown	41324	3	Middle	11
228.7116666666667	0	n/a	137228	KeyDown	41324	2	Ring	11
228.8800000000000	0	n/a	137329	KeyDown	41324	4	Index	11
229.0833333333333	0	n/a	137451	KeyDown	41324	4	Index	11
229.2066666666667	0	n/a	137525	KeyDown	41324	1	Little	11
229.3633333333333	0	n/a	137619	KeyDown	41324	3	Middle	11
229.5216666666667	0	n/a	137714	KeyDown	41324	2	Ring	11
229.6766666666667	0	n/a	137807	KeyDown	41324	4	Index	11
229.8866666666667	0	n/a	137933	KeyDown	41324	4	Index	11
230.0650000000000	0	n/a	138040	KeyDown	41324	1	Little	11
230.4216666666667	0	n/a	138254	StopPractice	41324	n/a	n/a	11
230.4233333333333	0	n/a	138255	StartRest	XXXXX	n/a	n/a	11
240.4566666666667	0	n/a	144275	StopRest	XXXXX	n/a	n/a	11
240.4583333333333	0	UPPT001	144276	StartPractice	41324	n/a	n/a	12
241.2750000000000	0	n/a	144766	KeyDown	41324	4	Index	12
241.4616666666667	0	n/a	144878	KeyDown	41324	1	Little	12
241.7550000000000	0	n/a	145054	KeyDown	41324	3	Middle	12
241.9300000000000	0	n/a	145159	KeyDown	41324	2	Ring	12
242.0983333333334	0	n/a	145260	KeyDown	41324	4	Index	12
242.3416666666667	0	n/a	145406	KeyDown	41324	4	Index	12
242.4900000000000	0	n/a	145495	KeyDown	41324	1	Little	12
242.7383333333333	0	n/a	145644	KeyDown	41324	3	Middle	12
242.8983333333333	0	n/a	145740	KeyDown	41324	2	Ring	12
243.0550000000000	0	n/a	145834	KeyDown	41324	4	Index	12
243.2733333333333	0	n/a	145965	KeyDown	41324	4	Index	12
243.4183333333334	0	n/a	146052	KeyDown	41324	1	Little	12
243.7533333333334	0	n/a	146253	KeyDown	41324	3	Middle	12
243.9266666666667	0	n/a	146357	KeyDown	41324	2	Ring	12
244.0950000000000	0	n/a	146458	KeyDown	41324	4	Index	12
244.3266666666667	0	n/a	146597	KeyDown	41324	4	Index	12
244.4700000000000	0	n/a	146683	KeyDown	41324	1	Little	12
244.7533333333334	0	n/a	146853	KeyDown	41324	3	Middle	12
244.9433333333334	0	n/a	146967	KeyDown	41324	2	Ring	12
245.1300000000000	0	n/a	147079	KeyDown	41324	4	Index	12
245.3516666666667	0	n/a	147212	KeyDown	41324	4	Index	12
245.4966666666667	0	n/a	147299	KeyDown	41324	1	Little	12
245.9566666666667	0	n/a	147575	KeyDown	41324	3	Middle	12
246.1450000000000	0	n/a	147688	KeyDown	41324	2	Ring	12
246.3266666666667	0	n/a	147797	KeyDown	41324	4	Index	12
246.5550000000000	0	n/a	147934	KeyDown	41324	4	Index	12
246.6850000000000	0	n/a	148012	KeyDown	41324	1	Little	12
246.8766666666667	0	n/a	148127	KeyDown	41324	3	Middle	12
247.0516666666667	0	n/a	148232	KeyDown	41324	2	Ring	12
247.2250000000000	0	n/a	148336	KeyDown	41324	4	Index	12
247.4466666666667	0	n/a	148469	KeyDown	41324	4	Index	12
247.5766666666667	0	n/a	148547	KeyDown	41324	1	Little	12
247.7716666666667	0	n/a	148664	KeyDown	41324	3	Middle	12
247.9300000000000	0	n/a	148759	KeyDown	41324	2	Ring	12
248.0833333333333	0	n/a	148851	KeyDown	41324	4	Index	12
248.2933333333334	0	n/a	148977	KeyDown	41324	4	Index	12
248.4050000000000	0	n/a	149044	KeyDown	41324	1	Little	12
248.5783333333333	0	n/a	149148	KeyDown	41324	3	Middle	12
248.7450000000000	0	n/a	149248	KeyDown	41324	2	Ring	12
248.9066666666667	0	n/a	149345	KeyDown	41324	4	Index	12
249.1133333333333	0	n/a	149469	KeyDown	41324	4	Index	12
249.2216666666667	0	n/a	149534	KeyDown	41324	1	Little	12
249.4066666666667	0	n/a	149645	KeyDown	41324	3	Middle	12
249.5650000000000	0	n/a	149740	KeyDown	41324	2	Ring	12
249.7200000000000	0	n/a	149833	KeyDown	41324	4	Index	12
249.9283333333333	0	n/a	149958	KeyDown	41324	4	Index	12
250.0516666666667	0	n/a	150032	KeyDown	41324	1	Little	12
250.2050000000000	0	n/a	150124	KeyDown	41324	3	Middle	12
250.2250000000000	0	n/a	150136	KeyDown	41324	2	Ring	12
250.2416666666667	0	n/a	150146	KeyDown	41324	4	Index	12
250.4966666666667	0	n/a	150299	StopPractice	41324	n/a	n/a	12
250.4983333333334	0	n/a	150300	StartRest	XXXXX	n/a	n/a	12
260.5300000000000	0	n/a	156319	StopRest	XXXXX	n/a	n/a	12
260.5316666666667	0	UPPT001	156320	StartPractice	41324	n/a	n/a	13
261.2133333333334	0	n/a	156729	KeyDown	41324	4	Index	13
261.3550000000000	0	n/a	156814	KeyDown	41324	1	Little	13
261.5700000000000	0	n/a	156943	KeyDown	41324	3	Middle	13
261.7250000000000	0	n/a	157036	KeyDown	41324	2	Ring	13
261.8750000000000	0	n/a	157126	KeyDown	41324	4	Index	13
262.0983333333334	0	n/a	157260	KeyDown	41324	4	Index	13
262.2233333333334	0	n/a	157335	KeyDown	41324	1	Little	13
262.4183333333334	0	n/a	157452	KeyDown	41324	3	Middle	13
262.5900000000000	0	n/a	157555	KeyDown	41324	2	Ring	13
262.7600000000000	0	n/a	157657	KeyDown	41324	4	Index	13
262.9700000000000	0	n/a	157783	KeyDown	41324	4	Index	13
263.0983333333334	0	n/a	157860	KeyDown	41324	1	Little	13
263.2850000000000	0	n/a	157972	KeyDown	41324	3	Middle	13
263.4533333333334	0	n/a	158073	KeyDown	41324	2	Ring	13
263.6200000000000	0	n/a	158173	KeyDown	41324	4	Index	13
263.8350000000000	0	n/a	158302	KeyDown	41324	4	Index	13
263.9583333333334	0	n/a	158376	KeyDown	41324	1	Little	13
264.1500000000000	0	n/a	158491	KeyDown	41324	3	Middle	13
264.3066666666667	0	n/a	158585	KeyDown	41324	2	Ring	13
264.4600000000000	0	n/a	158677	KeyDown	41324	4	Index	13
264.6666666666667	0	n/a	158801	KeyDown	41324	4	Index	13
264.8550000000000	0	n/a	158914	KeyDown	41324	1	Little	13
265.0333333333334	0	n/a	159021	KeyDown	41324	4	Index	13
265.2700000000000	0	n/a	159163	KeyDown	41324	3	Middle	13
265.6233333333333	0	n/a	159375	KeyDown	41324	4	Index	13
265.9016666666667	0	n/a	159542	KeyDown	41324	4	Index	13
266.0516666666667	0	n/a	159632	KeyDown	41324	1	Little	13
266.3000000000000	0	n/a	159781	KeyDown	41324	3	Middle	13
266.5800000000000	0	n/a	159949	KeyDown	41324	2	Ring	13
266.8566666666667	0	n/a	160115	KeyDown	41324	4	Index	13
267.4850000000000	0	n/a	160492	KeyDown	41324	4	Index	13
267.6716666666667	0	n/a	160604	KeyDown	41324	1	Little	13
267.9766666666667	0	n/a	160787	KeyDown	41324	3	Middle	13
268.1750000000000	0	n/a	160906	KeyDown	41324	2	Ring	13
268.3700000000000	0	n/a	161023	KeyDown	41324	4	Index	13
268.5883333333334	0	n/a	161154	KeyDown	41324	4	Index	13
268.7266666666667	0	n/a	161237	KeyDown	41324	1	Little	13
268.9850000000000	0	n/a	161392	KeyDown	41324	3	Middle	13
269.1600000000000	0	n/a	161497	KeyDown	41324	2	Ring	13
269.3333333333334	0	n/a	161601	KeyDown	41324	4	Index	13
269.5650000000000	0	n/a	161740	KeyDown	41324	4	Index	13
269.6900000000000	0	n/a	161815	KeyDown	41324	1	Little	13
269.9933333333333	0	n/a	161997	KeyDown	41324	3	Middle	13
270.1883333333333	0	n/a	162114	KeyDown	41324	2	Ring	13
270.3800000000000	0	n/a	162229	KeyDown	41324	4	Index	13
270.5700000000000	0	n/a	162343	StopPractice	41324	n/a	n/a	13
270.5716666666667	0	n/a	162344	StartRest	XXXXX	n/a	n/a	13
280.6050000000000	0	n/a	168364	StopRest	XXXXX	n/a	n/a	13
280.6066666666667	0	UPPT001	168365	StartPractice	41324	n/a	n/a	14
281.3900000000000	0	n/a	168835	KeyDown	41324	4	Index	14
281.6100000000000	0	n/a	168967	KeyDown	41324	1	Little	14
281.8750000000000	0	n/a	169126	KeyDown	41324	3	Middle	14
282.0483333333333	0	n/a	169230	KeyDown	41324	2	Ring	14
282.2183333333334	0	n/a	169332	KeyDown	41324	4	Index	14
282.4450000000000	0	n/a	169468	KeyDown	41324	4	Index	14
282.5916666666667	0	n/a	169556	KeyDown	41324	1	Little	14
282.8400000000000	0	n/a	169705	KeyDown	41324	3	Middle	14
283.0133333333334	0	n/a	169809	KeyDown	41324	2	Ring	14
283.1800000000000	0	n/a	169909	KeyDown	41324	4	Index	14
283.4083333333334	0	n/a	170046	KeyDown	41324	4	Index	14
283.5250000000000	0	n/a	170116	KeyDown	41324	1	Little	14
283.8116666666667	0	n/a	170288	KeyDown	41324	3	Middle	14
283.9766666666667	0	n/a	170387	KeyDown	41324	2	Ring	14
284.1383333333334	0	n/a	170484	KeyDown	41324	4	Index	14
284.3600000000000	0	n/a	170617	KeyDown	41324	4	Index	14
284.4783333333334	0	n/a	170688	KeyDown	41324	1	Little	14
284.6750000000000	0	n/a	170806	KeyDown	41324	3	Middle	14
284.8383333333334	0	n/a	170904	KeyDown	41324	2	Ring	14
285.0000000000000	0	n/a	171001	KeyDown	41324	4	Index	14
285.2150000000000	0	n/a	171130	KeyDown	41324	4	Index	14
285.3383333333334	0	n/a	171204	KeyDown	41324	1	Little	14
285.5300000000000	0	n/a	171319	KeyDown	41324	3	Middle	14
285.7100000000000	0	n/a	171427	KeyDown	41324	2	Ring	14
285.8900000000000	0	n/a	171535	KeyDown	41324	4	Index	14
286.1133333333333	0	n/a	171669	KeyDown	41324	4	Index	14
286.2300000000000	0	n/a	171739	KeyDown	41324	1	Little	14
286.3983333333334	0	n/a	171840	KeyDown	41324	3	Middle	14
286.5666666666667	0	n/a	171941	KeyDown	41324	2	Ring	14
286.7333333333333	0	n/a	172041	KeyDown	41324	4	Index	14
286.9616666666667	0	n/a	172178	KeyDown	41324	4	Index	14
287.0833333333334	0	n/a	172251	KeyDown	41324	1	Little	14
287.2400000000000	0	n/a	172345	KeyDown	41324	3	Middle	14
287.4066666666667	0	n/a	172445	KeyDown	41324	2	Ring	14
287.5700000000000	0	n/a	172543	KeyDown	41324	4	Index	14
287.8083333333333	0	n/a	172686	KeyDown	41324	4	Index	14
287.9483333333333	0	n/a	172770	KeyDown	41324	1	Little	14
288.1033333333334	0	n/a	172863	KeyDown	41324	3	Middle	14
288.2633333333334	0	n/a	172959	KeyDown	41324	2	Ring	14
288.4200000000000	0	n/a	173053	KeyDown	41324	4	Index	14
288.6833333333333	0	n/a	173211	KeyDown	41324	4	Index	14
288.8416666666667	0	n/a	173306	KeyDown	41324	1	Little	14
289.0600000000000	0	n/a	173437	KeyDown	41324	3	Middle	14
289.2683333333334	0	n/a	173562	KeyDown	41324	2	Ring	14
289.4750000000000	0	n/a	173686	KeyDown	41324	4	Index	14
289.7833333333334	0	n/a	173871	KeyDown	41324	4	Index	14
289.9000000000000	0	n/a	173941	KeyDown	41324	1	Little	14
290.1766666666667	0	n/a	174107	KeyDown	41324	3	Middle	14
290.3516666666667	0	n/a	174212	KeyDown	41324	2	Ring	14
290.5233333333334	0	n/a	174315	KeyDown	41324	4	Index	14
290.6450000000000	0	n/a	174388	StopPractice	41324	n/a	n/a	14
290.6466666666667	0	n/a	174389	StartRest	XXXXX	n/a	n/a	14
300.6800000000000	0	n/a	180409	StopRest	XXXXX	n/a	n/a	14
300.6816666666667	0	UPPT001	180410	StartPractice	41324	n/a	n/a	15
301.3783333333333	0	n/a	180828	KeyDown	41324	4	Index	15
301.5383333333334	0	n/a	180924	KeyDown	41324	1	Little	15
301.7333333333333	0	n/a	181041	KeyDown	41324	3	Middle	15
301.9050000000000	0	n/a	181144	KeyDown	41324	2	Ring	15
302.0766666666667	0	n/a	181247	KeyDown	41324	4	Index	15
302.3000000000000	0	n/a	181381	KeyDown	41324	4	Index	15
302.4183333333334	0	n/a	181452	KeyDown	41324	1	Little	15
302.5583333333333	0	n/a	181536	KeyDown	41324	3	Middle	15
302.7350000000000	0	n/a	181642	KeyDown	41324	2	Ring	15
302.9100000000000	0	n/a	181747	KeyDown	41324	4	Index	15
303.1400000000000	0	n/a	181885	KeyDown	41324	4	Index	15
303.2900000000000	0	n/a	181975	KeyDown	41324	1	Little	15
303.6050000000000	0	n/a	182164	KeyDown	41324	3	Middle	15
303.8600000000000	0	n/a	182317	KeyDown	41324	2	Ring	15
304.1100000000000	0	n/a	182467	KeyDown	41324	4	Index	15
304.3816666666667	0	n/a	182630	KeyDown	41324	1	Little	15
304.4916666666667	0	n/a	182696	KeyDown	41324	4	Index	15
305.0683333333333	0	n/a	183042	KeyDown	41324	4	Index	15
305.2683333333334	0	n/a	183162	KeyDown	41324	1	Little	15
305.5116666666667	0	n/a	183308	KeyDown	41324	3	Middle	15
305.6850000000000	0	n/a	183412	KeyDown	41324	2	Ring	15
305.8550000000000	0	n/a	183514	KeyDown	41324	4	Index	15
306.0800000000000	0	n/a	183649	KeyDown	41324	4	Index	15
306.2100000000000	0	n/a	183727	KeyDown	41324	1	Little	15
306.4333333333333	0	n/a	183861	KeyDown	41324	3	Middle	15
306.5900000000000	0	n/a	183955	KeyDown	41324	2	Ring	15
306.7450000000000	0	n/a	184048	KeyDown	41324	4	Index	15
307.0150000000000	0	n/a	184210	KeyDown	41324	4	Index	15
307.1433333333334	0	n/a	184287	KeyDown	41324	1	Little	15
307.3733333333333	0	n/a	184425	KeyDown	41324	3	Middle	15
307.5516666666667	0	n/a	184532	KeyDown	41324	2	Ring	15
307.7283333333334	0	n/a	184638	KeyDown	41324	4	Index	15
307.9900000000000	0	n/a	184795	KeyDown	41324	4	Index	15
308.4566666666667	0	n/a	185075	KeyDown	41324	1	Little	15
308.8366666666667	0	n/a	185303	KeyDown	41324	3	Middle	15
308.9833333333333	0	n/a	185391	KeyDown	41324	2	Ring	15
309.1216666666667	0	n/a	185474	KeyDown	41324	4	Index	15
309.3500000000000	0	n/a	185611	KeyDown	41324	4	Index	15
309.4683333333334	0	n/a	185682	KeyDown	41324	1	Little	15
309.6566666666667	0	n/a	185795	KeyDown	41324	3	Middle	15
309.8383333333334	0	n/a	185904	KeyDown	41324	2	Ring	15
310.0183333333334	0	n/a	186012	KeyDown	41324	4	Index	15
310.2566666666667	0	n/a	186155	KeyDown	41324	4	Index	15
310.3583333333333	0	n/a	186216	KeyDown	41324	1	Little	15
310.5516666666667	0	n/a	186332	KeyDown	41324	3	Middle	15
310.7200000000000	0	n/a	186433	StopPractice	41324	n/a	n/a	15
310.7216666666667	0	n/a	186434	StartRest	XXXXX	n/a	n/a	15
320.7550000000000	0	n/a	192454	StopRest	XXXXX	n/a	n/a	15
320.7566666666667	0	UPPT001	192455	StartPractice	41324	n/a	n/a	16
321.4066666666667	0	n/a	192845	KeyDown	41324	4	Index	16
321.5750000000000	0	n/a	192946	KeyDown	41324	1	Little	16
321.8466666666667	0	n/a	193109	KeyDown	41324	3	Middle	16
321.9900000000000	0	n/a	193195	KeyDown	41324	2	Ring	16
322.1300000000000	0	n/a	193279	KeyDown	41324	4	Index	16
322.3516666666667	0	n/a	193412	KeyDown	41324	4	Index	16
322.4850000000000	0	n/a	193492	KeyDown	41324	1	Little	16
322.6583333333334	0	n/a	193596	KeyDown	41324	3	Middle	16
322.8200000000000	0	n/a	193693	KeyDown	41324	2	Ring	16
322.9783333333334	0	n/a	193788	KeyDown	41324	4	Index	16
323.2050000000000	0	n/a	193924	KeyDown	41324	4	Index	16
323.3216666666667	0	n/a	193994	KeyDown	41324	1	Little	16
323.4600000000000	0	n/a	194077	KeyDown	41324	3	Middle	16
323.5700000000000	0	n/a	194143	KeyDown	41324	2	Ring	16
323.6783333333333	0	n/a	194208	KeyDown	41324	4	Index	16
324.3133333333333	0	n/a	194589	KeyDown	41324	4	Index	16
324.6400000000000	0	n/a	194785	KeyDown	41324	4	Index	16
324.7650000000000	0	n/a	194860	KeyDown	41324	1	Little	16
324.9516666666667	0	n/a	194972	KeyDown	41324	3	Middle	16
325.1133333333333	0	n/a	195069	KeyDown	41324	2	Ring	16
325.2716666666667	0	n/a	195164	KeyDown	41324	4	Index	16
325.5233333333334	0	n/a	195315	KeyDown	41324	4	Index	16
325.6550000000000	0	n/a	195394	KeyDown	41324	1	Little	16
325.8300000000000	0	n/a	195499	KeyDown	41324	3	Middle	16
325.9900000000000	0	n/a	195595	KeyDown	41324	2	Ring	16
326.1483333333334	0	n/a	195690	KeyDown	41324	4	Index	16
326.4833333333333	0	n/a	195891	KeyDown	41324	4	Index	16
326.5900000000000	0	n/a	195955	KeyDown	41324	1	Little	16
326.9350000000000	0	n/a	196162	KeyDown	41324	3	Middle	16
327.1000000000000	0	n/a	196261	KeyDown	41324	2	Ring	16
327.2616666666667	0	n/a	196358	KeyDown	41324	4	Index	16
327.5550000000000	0	n/a	196534	KeyDown	41324	4	Index	16
327.6850000000000	0	n/a	196612	KeyDown	41324	1	Little	16
327.8983333333334	0	n/a	196740	KeyDown	41324	3	Middle	16
328.0783333333334	0	n/a	196848	KeyDown	41324	2	Ring	16
328.2533333333333	0	n/a	196953	KeyDown	41324	4	Index	16
328.6050000000000	0	n/a	197164	KeyDown	41324	4	Index	16
328.7450000000000	0	n/a	197248	KeyDown	41324	1	Little	16
329.1383333333334	0	n/a	197484	KeyDown	41324	3	Middle	16
329.4033333333334	0	n/a	197643	KeyDown	41324	2	Ring	16
329.6633333333334	0	n/a	197799	KeyDown	41324	4	Index	16
329.9333333333333	0	n/a	197961	KeyDown	41324	4	Index	16
330.0750000000000	0	n/a	198046	KeyDown	41324	1	Little	16
330.2816666666667	0	n/a	198170	KeyDown	41324	3	Middle	16
330.4966666666667	0	n/a	198299	KeyDown	41324	2	Ring	16
330.7083333333334	0	n/a	198426	KeyDown	41324	4	Index	16
330.7950000000000	0	n/a	198478	StopPractice	41324	n/a	n/a	16
330.7966666666667	0	n/a	198479	StartRest	XXXXX	n/a	n/a	16
340.8300000000000	0	n/a	204499	StopRest	XXXXX	n/a	n/a	16
340.8316666666667	0	UPPT001	204500	StartPractice	41324	n/a	n/a	17
341.4166666666667	0	n/a	204851	KeyDown	41324	4	Index	17
341.5616666666667	0	n/a	204938	KeyDown	41324	1	Little	17
341.8050000000000	0	n/a	205084	KeyDown	41324	3	Middle	17
341.9983333333333	0	n/a	205200	KeyDown	41324	2	Ring	17
342.1900000000000	0	n/a	205315	KeyDown	41324	4	Index	17
342.4500000000000	0	n/a	205471	KeyDown	41324	4	Index	17
342.6066666666667	0	n/a	205565	KeyDown	41324	1	Little	17
342.9383333333333	0	n/a	205764	KeyDown	41324	3	Middle	17
343.1483333333334	0	n/a	205890	KeyDown	41324	2	Ring	17
343.3533333333334	0	n/a	206013	KeyDown	41324	4	Index	17
343.6316666666667	0	n/a	206180	KeyDown	41324	4	Index	17
343.8233333333334	0	n/a	206295	KeyDown	41324	1	Little	17
344.1283333333333	0	n/a	206478	KeyDown	41324	3	Middle	17
344.4400000000000	0	n/a	206665	KeyDown	41324	2	Ring	17
344.7500000000000	0	n/a	206851	KeyDown	41324	4	Index	17
345.0016666666667	0	n/a	207002	KeyDown	41324	4	Index	17
345.1300000000000	0	n/a	207079	KeyDown	41324	1	Little	17
345.3533333333334	0	n/a	207213	KeyDown	41324	3	Middle	17
345.5300000000000	0	n/a	207319	KeyDown	41324	2	Ring	17
345.7033333333334	0	n/a	207423	KeyDown	41324	4	Index	17
345.9433333333333	0	n/a	207567	KeyDown	41324	4	Index	17
346.0466666666667	0	n/a	207629	KeyDown	41324	1	Little	17
346.2750000000000	0	n/a	207766	KeyDown	41324	3	Middle	17
346.4583333333334	0	n/a	207876	KeyDown	41324	2	Ring	17
346.6400000000000	0	n/a	207985	KeyDown	41324	4	Index	17
346.8450000000000	0	n/a	208108	KeyDown	41324	4	Index	17
346.9650000000000	0	n/a	208180	KeyDown	41324	1	Little	17
347.1650000000000	0	n/a	208300	KeyDown	41324	3	Middle	17
347.3133333333333	0	n/a	208389	KeyDown	41324	2	Ring	17
347.4583333333334	0	n/a	208476	KeyDown	41324	4	Index	17
347.6950000000001	0	n/a	208618	KeyDown	41324	4	Index	17
347.8150000000000	0	n/a	208690	KeyDown	41324	1	Little	17
348.0833333333334	0	n/a	208851	KeyDown	41324	3	Middle	17
348.2466666666667	0	n/a	208949	KeyDown	41324	2	Ring	17
348.4066666666667	0	n/a	209045	KeyDown	41324	4	Index	17
348.6450000000000	0	n/a	209188	KeyDown	41324	4	Index	17
348.7733333333334	0	n/a	209265	KeyDown	41324	1	Little	17
348.9533333333334	0	n/a	209373	KeyDown	41324	3	Middle	17
349.0950000000000	0	n/a	209458	KeyDown	41324	2	Ring	17
349.2350000000000	0	n/a	209542	KeyDown	41324	4	Index	17
349.8633333333333	0	n/a	209919	KeyDown	41324	4	Index	17
350.0283333333334	0	n/a	210018	KeyDown	41324	1	Little	17
350.8700000000000	0	n/a	210523	StopPractice	41324	n/a	n/a	17
350.8716666666667	0	n/a	210524	StartRest	XXXXX	n/a	n/a	17
360.9050000000000	0	n/a	216544	StopRest	XXXXX	n/a	n/a	17
360.9066666666667	0	UPPT001	216545	StartPractice	41324	n/a	n/a	18
361.7316666666667	0	n/a	217040	KeyDown	41324	4	Index	18
361.8733333333333	0	n/a	217125	KeyDown	41324	1	Little	18
362.1100000000000	0	n/a	217267	KeyDown	41324	3	Middle	18
362.2716666666667	0	n/a	217364	KeyDown	41324	2	Ring	18
362.4300000000000	0	n/a	217459	KeyDown	41324	4	Index	18
362.6700000000000	0	n/a	217603	KeyDown	41324	4	Index	18
362.8183333333334	0	n/a	217692	KeyDown	41324	1	Little	18
363.0650000000000	0	n/a	217840	KeyDown	41324	3	Middle	18
363.2433333333333	0	n/a	217947	KeyDown	41324	2	Ring	18
363.4183333333334	0	n/a	218052	KeyDown	41324	4	Index	18
363.7116666666667	0	n/a	218228	KeyDown	41324	4	Index	18
363.8900000000000	0	n/a	218335	KeyDown	41324	1	Little	18
364.1883333333333	0	n/a	218514	KeyDown	41324	3	Middle	18
364.3516666666667	0	n/a	218612	KeyDown	41324	2	Ring	18
364.5100000000000	0	n/a	218707	KeyDown	41324	4	Index	18
364.7716666666667	0	n/a	218864	KeyDown	41324	4	Index	18
364.8983333333334	0	n/a	218940	KeyDown	41324	1	Little	18
365.1133333333333	0	n/a	219069	KeyDown	41324	3	Middle	18
365.2933333333334	0	n/a	219177	KeyDown	41324	2	Ring	18
365.4700000000000	0	n/a	219283	KeyDown	41324	4	Index	18
365.6950000000001	0	n/a	219418	KeyDown	41324	4	Index	18
365.8033333333333	0	n/a	219483	KeyDown	41324	1	Little	18
366.0216666666667	0	n/a	219614	KeyDown	41324	3	Middle	18
366.2200000000000	0	n/a	219733	KeyDown	41324	2	Ring	18
366.4150000000000	0	n/a	219850	KeyDown	41324	4	Index	18
366.6766666666667	0	n/a	220007	KeyDown	41324	4	Index	18
366.7983333333333	0	n/a	220080	KeyDown	41324	1	Little	18
367.0033333333333	0	n/a	220203	KeyDown	41324	3	Middle	18
367.2333333333333	0	n/a	220341	KeyDown	41324	2	Ring	18
367.4600000000000	0	n/a	220477	KeyDown	41324	4	Index	18
367.8083333333333	0	n/a	220686	KeyDown	41324	4	Index	18
367.9600000000000	0	n/a	220777	KeyDown	41324	1	Little	18
368.3233333333334	0	n/a	220995	KeyDown	41324	3	Middle	18
368.5333333333334	0	n/a	221121	KeyDown	41324	2	Ring	18
368.7383333333333	0	n/a	221244	KeyDown	41324	4	Index	18
368.9883333333333	0	n/a	221394	KeyDown	41324	4	Index	18
369.1150000000000	0	n/a	221470	KeyDown	41324	1	Little	18
369.3733333333333	0	n/a	221625	KeyDown	41324	3	Middle	18
369.6533333333334	0	n/a	221793	KeyDown	41324	2	Ring	18
369.9333333333333	0	n/a	221961	KeyDown	41324	4	Index	18
370.2300000000000	0	n/a	222139	KeyDown	41324	4	Index	18
370.3750000000000	0	n/a	222226	KeyDown	41324	1	Little	18
370.6483333333334	0	n/a	222390	KeyDown	41324	3	Middle	18
370.9450000000001	0	n/a	222568	StopPractice	41324	n/a	n/a	18
370.9466666666667	0	n/a	222569	StartRest	XXXXX	n/a	n/a	18
380.9800000000000	0	n/a	228589	StopRest	XXXXX	n/a	n/a	18
380.9816666666667	0	UPPT001	228590	StartPractice	41324	n/a	n/a	19
381.7033333333334	0	n/a	229023	KeyDown	41324	4	Index	19
381.9083333333334	0	n/a	229146	KeyDown	41324	1	Little	19
382.1366666666667	0	n/a	229283	KeyDown	41324	3	Middle	19
382.3050000000000	0	n/a	229384	KeyDown	41324	2	Ring	19
382.4700000000000	0	n/a	229483	KeyDown	41324	4	Index	19
382.6916666666667	0	n/a	229616	KeyDown	41324	4	Index	19
382.8033333333333	0	n/a	229683	KeyDown	41324	1	Little	19
382.9733333333334	0	n/a	229785	KeyDown	41324	3	Middle	19
383.1533333333334	0	n/a	229893	KeyDown	41324	2	Ring	19
383.3316666666667	0	n/a	230000	KeyDown	41324	4	Index	19
383.5550000000000	0	n/a	230134	KeyDown	41324	4	Index	19
383.6650000000000	0	n/a	230200	KeyDown	41324	1	Little	19
383.8500000000000	0	n/a	230311	KeyDown	41324	3	Middle	19
384.0383333333334	0	n/a	230424	KeyDown	41324	2	Ring	19
384.2250000000000	0	n/a	230536	KeyDown	41324	4	Index	19
384.5000000000000	0	n/a	230701	KeyDown	41324	4	Index	19
384.6200000000000	0	n/a	230773	KeyDown	41324	1	Little	19
384.8133333333333	0	n/a	230889	KeyDown	41324	3	Middle	19
385.0083333333334	0	n/a	231006	KeyDown	41324	2	Ring	19
385.1983333333334	0	n/a	231120	KeyDown	41324	4	Index	19
385.4200000000000	0	n/a	231253	KeyDown	41324	4	Index	19
385.5383333333334	0	n/a	231324	KeyDown	41324	1	Little	19
385.7200000000000	0	n/a	231433	KeyDown	41324	3	Middle	19
385.8816666666667	0	n/a	231530	KeyDown	41324	2	Ring	19
386.0400000000000	0	n/a	231625	KeyDown	41324	4	Index	19
386.2783333333334	0	n/a	231768	KeyDown	41324	4	Index	19
386.3950000000000	0	n/a	231838	KeyDown	41324	1	Little	19
386.5850000000000	0	n/a	231952	KeyDown	41324	3	Middle	19
386.7733333333334	0	n/a	232065	KeyDown	41324	2	Ring	19
386.9600000000000	0	n/a	232177	KeyDown	41324	4	Index	19
387.3050000000000	0	n/a	232384	KeyDown	41324	4	Index	19
387.4600000000000	0	n/a	232477	KeyDown	41324	1	Little	19
387.6966666666667	0	n/a	232619	KeyDown	41324	3	Middle	19
387.9266666666667	0	n/a	232757	KeyDown	41324	2	Ring	19
388.1533333333334	0	n/a	232893	KeyDown	41324	4	Index	19
388.3983333333334	0	n/a	233040	KeyDown	41324	4	Index	19
388.5400000000000	0	n/a	233125	KeyDown	41324	1	Little	19
388.7533333333333	0	n/a	233253	KeyDown	41324	3	Middle	19
388.9550000000000	0	n/a	233374	KeyDown	41324	2	Ring	19
389.1566666666667	0	n/a	233495	KeyDown	41324	4	Index	19
389.3900000000000	0	n/a	233635	KeyDown	41324	4	Index	19
389.5150000000000	0	n/a	233710	KeyDown	41324	1	Little	19
389.7033333333334	0	n/a	233823	KeyDown	41324	3	Middle	19
389.8900000000000	0	n/a	233935	KeyDown	41324	2	Ring	19
390.0750000000000	0	n/a	234046	KeyDown	41324	4	Index	19
390.3266666666667	0	n/a	234197	KeyDown	41324	4	Index	19
390.4200000000000	0	n/a	234253	KeyDown	41324	1	Little	19
390.6883333333333	0	n/a	234414	KeyDown	41324	3	Middle	19
391.0200000000000	0	n/a	234613	StopPractice	41324	n/a	n/a	19
391.0216666666667	0	n/a	234614	StartRest	XXXXX	n/a	n/a	19
401.0550000000000	0	n/a	240634	StopRest	XXXXX	n/a	n/a	19
401.0566666666667	0	UPPT001	240635	StartPractice	41324	n/a	n/a	20
401.7550000000001	0	n/a	241054	KeyDown	41324	4	Index	20
401.9816666666667	0	n/a	241190	KeyDown	41324	1	Little	20
402.2116666666667	0	n/a	241328	KeyDown	41324	3	Middle	20
402.3933333333334	0	n/a	241437	KeyDown	41324	2	Ring	20
402.5716666666667	0	n/a	241544	KeyDown	41324	4	Index	20
402.7866666666667	0	n/a	241673	KeyDown	41324	4	Index	20
402.8983333333334	0	n/a	241740	KeyDown	41324	1	Little	20
403.1100000000000	0	n/a	241867	KeyDown	41324	3	Middle	20
403.2750000000000	0	n/a	241966	KeyDown	41324	2	Ring	20
403.4383333333333	0	n/a	242064	KeyDown	41324	4	Index	20
403.6633333333334	0	n/a	242199	KeyDown	41324	4	Index	20
403.7700000000000	0	n/a	242263	KeyDown	41324	1	Little	20
403.9183333333334	0	n/a	242352	KeyDown	41324	3	Middle	20
404.0900000000000	0	n/a	242455	KeyDown	41324	2	Ring	20
404.2600000000000	0	n/a	242557	KeyDown	41324	4	Index	20
404.5183333333334	0	n/a	242712	KeyDown	41324	4	Index	20
404.6233333333333	0	n/a	242775	KeyDown	41324	1	Little	20
404.7833333333334	0	n/a	242871	KeyDown	41324	3	Middle	20
404.9700000000000	0	n/a	242983	KeyDown	41324	2	Ring	20
405.1566666666667	0	n/a	243095	KeyDown	41324	4	Index	20
405.3933333333334	0	n/a	243237	KeyDown	41324	4	Index	20
405.5250000000000	0	n/a	243316	KeyDown	41324	1	Little	20
405.6783333333333	0	n/a	243408	KeyDown	41324	3	Middle	20
405.8483333333334	0	n/a	243510	KeyDown	41324	2	Ring	20
406.0150000000000	0	n/a	243610	KeyDown	41324	4	Index	20
406.2633333333334	0	n/a	243759	KeyDown	41324	4	Index	20
406.3733333333333	0	n/a	243825	KeyDown	41324	1	Little	20
406.8450000000000	0	n/a	244108	KeyDown	41324	3	Middle	20
407.1800000000000	0	n/a	244309	KeyDown	41324	2	Ring	20
407.5116666666667	0	n/a	244508	KeyDown	41324	4	Index	20
407.7483333333333	0	n/a	244650	KeyDown	41324	4	Index	20
407.8900000000000	0	n/a	244735	KeyDown	41324	1	Little	20
408.1116666666667	0	n/a	244868	KeyDown	41324	3	Middle	20
408.2883333333334	0	n/a	244974	KeyDown	41324	2	Ring	20
408.4633333333334	0	n/a	245079	KeyDown	41324	4	Index	20
408.6766666666667	0	n/a	245207	KeyDown	41324	4	Index	20
408.8083333333333	0	n/a	245286	KeyDown	41324	1	Little	20
409.2683333333334	0	n/a	245562	KeyDown	41324	3	Middle	20
409.4550000000000	0	n/a	245674	KeyDown	41324	2	Ring	20
409.6350000000000	0	n/a	245782	KeyDown	41324	4	Index	20
410.0950000000000	0	n/a	246058	KeyDown	41324	4	Index	20
410.2583333333334	0	n/a	246156	KeyDown	41324	1	Little	20
410.5100000000000	0	n/a	246307	KeyDown	41324	3	Middle	20
410.6916666666667	0	n/a	246416	KeyDown	41324	2	Ring	20
410.8700000000000	0	n/a	246523	KeyDown	41324	4	Index	20
411.0950000000000	0	n/a	246658	StopPractice	41324	n/a	n/a	20
411.0966666666667	0	n/a	246659	StartRest	XXXXX	n/a	n/a	20
421.1300000000001	0	n/a	252679	StopRest	XXXXX	n/a	n/a	20
421.1316666666667	0	UPPT001	252680	StartPractice	41324	n/a	n/a	21
421.7783333333334	0	n/a	253068	KeyDown	41324	4	Index	21
421.8950000000000	0	n/a	253138	KeyDown	41324	1	Little	21
422.1150000000000	0	n/a	253270	KeyDown	41324	3	Middle	21
422.2783333333334	0	n/a	253368	KeyDown	41324	2	Ring	21
422.4383333333333	0	n/a	253464	KeyDown	41324	4	Index	21
422.6516666666667	0	n/a	253592	KeyDown	41324	4	Index	21
422.7650000000000	0	n/a	253660	KeyDown	41324	1	Little	21
422.9450000000001	0	n/a	253768	KeyDown	41324	3	Middle	21
423.1233333333333	0	n/a	253875	KeyDown	41324	2	Ring	21
423.2966666666667	0	n/a	253979	KeyDown	41324	4	Index	21
423.4950000000000	0	n/a	254098	KeyDown	41324	4	Index	21
423.6250000000000	0	n/a	254176	KeyDown	41324	1	Little	21
423.8066666666667	0	n/a	254285	KeyDown	41324	3	Middle	21
424.0933333333334	0	n/a	254457	KeyDown	41324	2	Ring	21
424.3783333333334	0	n/a	254628	KeyDown	41324	4	Index	21
424.7166666666667	0	n/a	254831	KeyDown	41324	4	Index	21
424.8533333333334	0	n/a	254913	KeyDown	41324	1	Little	21
425.0450000000000	0	n/a	255028	KeyDown	41324	3	Middle	21
425.2316666666667	0	n/a	255140	KeyDown	41324	2	Ring	21
425.4150000000000	0	n/a	255250	KeyDown	41324	4	Index	21
425.6500000000000	0	n/a	255391	KeyDown	41324	4	Index	21
425.7966666666667	0	n/a	255479	KeyDown	41324	1	Little	21
425.9550000000000	0	n/a	255574	KeyDown	41324	3	Middle	21
426.1633333333334	0	n/a	255699	KeyDown	41324	2	Ring	21
426.3683333333333	0	n/a	255822	KeyDown	41324	4	Index	21
426.6333333333334	0	n/a	255981	KeyDown	41324	4	Index	21
426.7566666666667	0	n/a	256055	KeyDown	41324	1	Little	21
427.0650000000001	0	n/a	256240	KeyDown	41324	3	Middle	21
427.3466666666667	0	n/a	256409	KeyDown	41324	2	Ring	21
427.6266666666667	0	n/a	256577	KeyDown	41324	4	Index	21
427.8950000000000	0	n/a	256738	KeyDown	41324	4	Index	21
428.0183333333334	0	n/a	256812	KeyDown	41324	1	Little	21
428.3133333333333	0	n/a	256989	KeyDown	41324	3	Middle	21
428.5566666666667	0	n/a	257135	KeyDown	41324	2	Ring	21
428.7950000000000	0	n/a	257278	KeyDown	41324	4	Index	21
429.0366666666667	0	n/a	257423	KeyDown	41324	4	Index	21
429.1583333333334	0	n/a	257496	KeyDown	41324	1	Little	21
429.3250000000000	0	n/a	257596	KeyDown	41324	3	Middle	21
429.5583333333333	0	n/a	257736	KeyDown	41324	2	Ring	21
429.7883333333334	0	n/a	257874	KeyDown	41324	4	Index	21
430.0466666666667	0	n/a	258029	KeyDown	41324	4	Index	21
430.2383333333333	0	n/a	258144	KeyDown	41324	1	Little	21
430.3916666666667	0	n/a	258236	KeyDown	41324	3	Middle	21
430.5516666666667	0	n/a	258332	KeyDown	41324	2	Ring	21
430.7100000000000	0	n/a	258427	KeyDown	41324	4	Index	21
430.9350000000000	0	n/a	258562	KeyDown	41324	4	Index	21
431.0533333333333	0	n/a	258633	KeyDown	41324	1	Little	21
431.1700000000000	0	n/a	258703	StopPractice	41324	n/a	n/a	21
431.1716666666667	0	n/a	258704	StartRest	XXXXX	n/a	n/a	21
441.2050000000000	0	n/a	264724	StopRest	XXXXX	n/a	n/a	21
441.2066666666667	0	UPPT001	264725	StartPractice	41324	n/a	n/a	22
441.9633333333334	0	n/a	265179	KeyDown	41324	4	Index	22
442.0666666666667	0	n/a	265241	KeyDown	41324	1	Little	22
442.4116666666667	0	n/a	265448	KeyDown	41324	3	Middle	22
442.5916666666667	0	n/a	265556	KeyDown	41324	2	Ring	22
442.7683333333334	0	n/a	265662	KeyDown	41324	4	Index	22
442.9600000000000	0	n/a	265777	KeyDown	41324	4	Index	22
443.0833333333334	0	n/a	265851	KeyDown	41324	1	Little	22
443.2383333333333	0	n/a	265944	KeyDown	41324	3	Middle	22
443.4200000000000	0	n/a	266053	KeyDown	41324	2	Ring	22
443.6000000000000	0	n/a	266161	KeyDown	41324	4	Index	22
443.7900000000000	0	n/a	266275	KeyDown	41324	4	Index	22
443.9766666666667	0	n/a	266387	KeyDown	41324	1	Little	22
444.1233333333333	0	n/a	266475	KeyDown	41324	3	Middle	22
444.3050000000000	0	n/a	266584	KeyDown	41324	2	Ring	22
444.4850000000000	0	n/a	266692	KeyDown	41324	4	Index	22
444.6883333333334	0	n/a	266814	KeyDown	41324	4	Index	22
444.8383333333334	0	n/a	266904	KeyDown	41324	1	Little	22
445.3183333333334	0	n/a	267192	KeyDown	41324	3	Middle	22
445.4933333333333	0	n/a	267297	KeyDown	41324	2	Ring	22
445.6633333333334	0	n/a	267399	KeyDown	41324	4	Index	22
445.8500000000000	0	n/a	267511	KeyDown	41324	4	Index	22
445.9400000000001	0	n/a	267565	KeyDown	41324	1	Little	22
446.1000000000000	0	n/a	267661	KeyDown	41324	3	Middle	22
446.2900000000000	0	n/a	267775	KeyDown	41324	2	Ring	22
446.4783333333334	0	n/a	267888	KeyDown	41324	4	Index	22
446.9050000000000	0	n/a	268144	KeyDown	41324	4	Index	22
447.0300000000000	0	n/a	268219	KeyDown	41324	1	Little	22
447.2700000000000	0	n/a	268363	KeyDown	41324	3	Middle	22
447.4400000000001	0	n/a	268465	KeyDown	41324	2	Ring	22
447.6100000000000	0	n/a	268567	KeyDown	41324	4	Index	22
447.8216666666667	0	n/a	268694	KeyDown	41324	4	Index	22
447.9583333333334	0	n/a	268776	KeyDown	41324	1	Little	22
448.5916666666667	0	n/a	269156	KeyDown	41324	3	Middle	22
448.7833333333334	0	n/a	269271	KeyDown	41324	2	Ring	22
448.9683333333334	0	n/a	269382	KeyDown	41324	4	Index	22
449.2233333333334	0	n/a	269535	KeyDown	41324	4	Index	22
449.3600000000000	0	n/a	269617	KeyDown	41324	1	Little	22
449.5583333333333	0	n/a	269736	KeyDown	41324	3	Middle	22
449.7950000000000	0	n/a	269878	KeyDown	41324	2	Ring	22
450.0300000000000	0	n/a	270019	KeyDown	41324	4	Index	22
450.2983333333333	0	n/a	270180	KeyDown	41324	4	Index	22
450.5166666666667	0	n/a	270311	KeyDown	41324	1	Little	22
450.7333333333333	0	n/a	270441	KeyDown	41324	3	Middle	22
451.2450000000000	0	n/a	270748	StopPractice	41324	n/a	n/a	22
451.2466666666667	0	n/a	270749	StartRest	XXXXX	n/a	n/a	22
461.2783333333334	0	n/a	276768	StopRest	XXXXX	n/a	n/a	22
461.2800000000000	0	UPPT001	276769	StartPractice	41324	n/a	n/a	23
462.0283333333334	0	n/a	277218	KeyDown	41324	4	Index	23
462.1516666666667	0	n/a	277292	KeyDown	41324	1	Little	23
462.3483333333334	0	n/a	277410	KeyDown	41324	3	Middle	23
462.5350000000000	0	n/a	277522	KeyDown	41324	2	Ring	23
462.7183333333334	0	n/a	277632	KeyDown	41324	4	Index	23
462.9150000000000	0	n/a	277750	KeyDown	41324	4	Index	23
463.0400000000000	0	n/a	277825	KeyDown	41324	1	Little	23
463.5033333333334	0	n/a	278103	KeyDown	41324	3	Middle	23
463.7066666666667	0	n/a	278225	KeyDown	41324	2	Ring	23
463.9066666666667	0	n/a	278345	KeyDown	41324	4	Index	23
464.1116666666667	0	n/a	278468	KeyDown	41324	4	Index	23
464.2116666666667	0	n/a	278528	KeyDown	41324	1	Little	23
464.4000000000000	0	n/a	278641	KeyDown	41324	3	Middle	23
464.5800000000000	0	n/a	278749	KeyDown	41324	2	Ring	23
464.7566666666667	0	n/a	278855	KeyDown	41324	4	Index	23
464.9766666666667	0	n/a	278987	KeyDown	41324	4	Index	23
465.0683333333334	0	n/a	279042	KeyDown	41324	1	Little	23
465.2883333333334	0	n/a	279174	KeyDown	41324	3	Middle	23
465.4750000000000	0	n/a	279286	KeyDown	41324	2	Ring	23
465.6583333333334	0	n/a	279396	KeyDown	41324	4	Index	23
465.8816666666667	0	n/a	279530	KeyDown	41324	4	Index	23
465.9966666666667	0	n/a	279599	KeyDown	41324	1	Little	23
466.1650000000000	0	n/a	279700	KeyDown	41324	3	Middle	23
466.3416666666667	0	n/a	279806	KeyDown	41324	2	Ring	23
466.5133333333334	0	n/a	279909	KeyDown	41324	4	Index	23
466.7450000000000	0	n/a	280048	KeyDown	41324	4	Index	23
466.8550000000000	0	n/a	280114	KeyDown	41324	1	Little	23
467.0783333333334	0	n/a	280248	KeyDown	41324	3	Middle	23
467.2350000000000	0	n/a	280342	KeyDown	41324	2	Ring	23
467.3900000000000	0	n/a	280435	KeyDown	41324	4	Index	23
467.6533333333334	0	n/a	280593	KeyDown	41324	4	Index	23
467.7866666666667	0	n/a	280673	KeyDown	41324	1	Little	23
467.9133333333334	0	n/a	280749	KeyDown	41324	3	Middle	23
468.0883333333334	0	n/a	280854	KeyDown	41324	2	Ring	23
468.2633333333334	0	n/a	280959	KeyDown	41324	4	Index	23
468.6283333333334	0	n/a	281178	KeyDown	41324	4	Index	23
468.7550000000001	0	n/a	281254	KeyDown	41324	1	Little	23
468.9483333333334	0	n/a	281370	KeyDown	41324	3	Middle	23
469.1233333333334	0	n/a	281475	KeyDown	41324	2	Ring	23
469.2983333333333	0	n/a	281580	KeyDown	41324	4	Index	23
469.5416666666667	0	n/a	281726	KeyDown	41324	4	Index	23
469.9016666666667	0	n/a	281942	KeyDown	41324	1	Little	23
470.1633333333334	0	n/a	282099	KeyDown	41324	3	Middle	23
470.4550000000000	0	n/a	282274	KeyDown	41324	3	Middle	23
470.5216666666667	0	n/a	282314	KeyDown	41324	4	Index	23
470.7933333333334	0	n/a	282477	KeyDown	41324	4	Index	23
471.0583333333333	0	n/a	282636	KeyDown	41324	1	Little	23
471.3183333333334	0	n/a	282792	StopPractice	41324	n/a	n/a	23
471.3200000000001	0	n/a	282793	StartRest	XXXXX	n/a	n/a	23
481.3533333333334	0	n/a	288813	StopRest	XXXXX	n/a	n/a	23
481.3550000000000	0	UPPT001	288814	StartPractice	41324	n/a	n/a	24
482.1050000000000	0	n/a	289264	KeyDown	41324	4	Index	24
482.2366666666667	0	n/a	289343	KeyDown	41324	1	Little	24
482.6666666666667	0	n/a	289601	KeyDown	41324	3	Middle	24
482.8483333333334	0	n/a	289710	KeyDown	41324	2	Ring	24
483.0250000000000	0	n/a	289816	KeyDown	41324	4	Index	24
483.2416666666667	0	n/a	289946	KeyDown	41324	4	Index	24
483.6866666666667	0	n/a	290213	KeyDown	41324	1	Little	24
484.2383333333333	0	n/a	290544	KeyDown	41324	3	Middle	24
484.4500000000000	0	n/a	290671	KeyDown	41324	2	Ring	24
484.6516666666667	0	n/a	290792	KeyDown	41324	4	Index	24
484.8666666666667	0	n/a	290921	KeyDown	41324	4	Index	24
485.0566666666667	0	n/a	291035	KeyDown	41324	1	Little	24
485.4133333333334	0	n/a	291249	KeyDown	41324	3	Middle	24
485.6066666666667	0	n/a	291365	KeyDown	41324	2	Ring	24
485.7933333333334	0	n/a	291477	KeyDown	41324	4	Index	24
486.0300000000000	0	n/a	291619	KeyDown	41324	4	Index	24
486.1533333333334	0	n/a	291693	KeyDown	41324	1	Little	24
486.3816666666667	0	n/a	291830	KeyDown	41324	3	Middle	24
486.5566666666667	0	n/a	291935	KeyDown	41324	2	Ring	24
486.7266666666667	0	n/a	292037	KeyDown	41324	4	Index	24
486.9433333333334	0	n/a	292167	KeyDown	41324	4	Index	24
487.0683333333334	0	n/a	292242	KeyDown	41324	1	Little	24
487.2733333333334	0	n/a	292365	KeyDown	41324	3	Middle	24
487.4450000000001	0	n/a	292468	KeyDown	41324	2	Ring	24
487.6133333333333	0	n/a	292569	KeyDown	41324	4	Index	24
487.8633333333333	0	n/a	292719	KeyDown	41324	4	Index	24
487.9966666666667	0	n/a	292799	KeyDown	41324	1	Little	24
489.2383333333333	0	n/a	293544	KeyDown	41324	4	Index	24
489.4783333333334	0	n/a	293688	KeyDown	41324	4	Index	24
489.5933333333334	0	n/a	293757	KeyDown	41324	1	Little	24
489.8433333333334	0	n/a	293907	KeyDown	41324	3	Middle	24
490.0216666666667	0	n/a	294014	KeyDown	41324	2	Ring	24
490.1966666666667	0	n/a	294119	KeyDown	41324	4	Index	24
490.4583333333334	0	n/a	294276	KeyDown	41324	4	Index	24
490.5816666666667	0	n/a	294350	KeyDown	41324	1	Little	24
490.7866666666667	0	n/a	294473	KeyDown	41324	3	Middle	24
490.9650000000000	0	n/a	294580	KeyDown	41324	2	Ring	24
491.1416666666667	0	n/a	294686	KeyDown	41324	4	Index	24
491.3933333333334	0	n/a	294837	StopPractice	41324	n/a	n/a	24
491.3950000000000	0	n/a	294838	StartRest	XXXXX	n/a	n/a	24
501.4300000000000	0	n/a	300859	StopRest	XXXXX	n/a	n/a	24
501.4316666666667	0	UPPT001	300860	StartPractice	41324	n/a	n/a	25
502.2533333333334	0	n/a	301353	KeyDown	41324	4	Index	25
502.4600000000000	0	n/a	301477	KeyDown	41324	1	Little	25
502.7500000000001	0	n/a	301651	KeyDown	41324	3	Middle	25
502.9316666666667	0	n/a	301760	KeyDown	41324	2	Ring	25
503.1083333333333	0	n/a	301866	KeyDown	41324	4	Index	25
503.3516666666667	0	n/a	302012	KeyDown	41324	4	Index	25
503.5100000000000	0	n/a	302107	KeyDown	41324	1	Little	25
503.7750000000000	0	n/a	302266	KeyDown	41324	3	Middle	25
503.9516666666667	0	n/a	302372	KeyDown	41324	2	Ring	25
504.1250000000001	0	n/a	302476	KeyDown	41324	4	Index	25
504.3733333333334	0	n/a	302625	KeyDown	41324	4	Index	25
504.4883333333333	0	n/a	302694	KeyDown	41324	1	Little	25
504.7033333333334	0	n/a	302823	KeyDown	41324	3	Middle	25
504.8466666666667	0	n/a	302909	KeyDown	41324	2	Ring	25
504.9883333333333	0	n/a	302994	KeyDown	41324	4	Index	25
505.2500000000001	0	n/a	303151	KeyDown	41324	4	Index	25
505.3633333333333	0	n/a	303219	KeyDown	41324	1	Little	25
505.6583333333334	0	n/a	303396	KeyDown	41324	3	Middle	25
505.8500000000000	0	n/a	303511	KeyDown	41324	2	Ring	25
506.0383333333334	0	n/a	303624	KeyDown	41324	4	Index	25
506.2750000000000	0	n/a	303766	KeyDown	41324	4	Index	25
506.3983333333334	0	n/a	303840	KeyDown	41324	1	Little	25
506.6100000000000	0	n/a	303967	KeyDown	41324	3	Middle	25
506.7650000000000	0	n/a	304060	KeyDown	41324	2	Ring	25
506.9200000000000	0	n/a	304153	KeyDown	41324	4	Index	25
507.2083333333334	0	n/a	304326	KeyDown	41324	4	Index	25
507.3300000000000	0	n/a	304399	KeyDown	41324	1	Little	25
507.5050000000001	0	n/a	304504	KeyDown	41324	3	Middle	25
507.6983333333334	0	n/a	304620	KeyDown	41324	2	Ring	25
507.8900000000000	0	n/a	304735	KeyDown	41324	4	Index	25
508.1766666666667	0	n/a	304907	KeyDown	41324	4	Index	25
508.2933333333334	0	n/a	304977	KeyDown	41324	1	Little	25
508.4850000000000	0	n/a	305092	KeyDown	41324	3	Middle	25
508.6566666666667	0	n/a	305195	KeyDown	41324	2	Ring	25
508.8250000000000	0	n/a	305296	KeyDown	41324	4	Index	25
509.1300000000001	0	n/a	305479	KeyDown	41324	4	Index	25
509.2383333333333	0	n/a	305544	KeyDown	41324	1	Little	25
509.4300000000000	0	n/a	305659	KeyDown	41324	3	Middle	25
509.5916666666667	0	n/a	305756	KeyDown	41324	2	Ring	25
509.7516666666667	0	n/a	305852	KeyDown	41324	4	Index	25
510.0783333333334	0	n/a	306048	KeyDown	41324	4	Index	25
510.1533333333334	0	n/a	306093	KeyDown	41324	1	Little	25
510.4883333333333	0	n/a	306294	KeyDown	41324	3	Middle	25
510.6666666666667	0	n/a	306401	KeyDown	41324	2	Ring	25
510.8400000000000	0	n/a	306505	KeyDown	41324	4	Index	25
511.1333333333334	0	n/a	306681	KeyDown	41324	4	Index	25
511.2233333333334	0	n/a	306735	KeyDown	41324	1	Little	25
511.4700000000000	0	n/a	306883	StopPractice	41324	n/a	n/a	25
511.4716666666667	0	n/a	306884	StartRest	XXXXX	n/a	n/a	25
521.5033333333333	0	n/a	312903	StopRest	XXXXX	n/a	n/a	25
521.5050000000000	0	UPPT001	312904	StartPractice	41324	n/a	n/a	26
522.0916666666667	0	n/a	313256	KeyDown	41324	4	Index	26
522.2166666666667	0	n/a	313331	KeyDown	41324	1	Little	26
522.4566666666667	0	n/a	313475	KeyDown	41324	3	Middle	26
522.6133333333333	0	n/a	313569	KeyDown	41324	2	Ring	26
522.7666666666667	0	n/a	313661	KeyDown	41324	4	Index	26
523.0416666666667	0	n/a	313826	KeyDown	41324	4	Index	26
523.1433333333333	0	n/a	313887	KeyDown	41324	1	Little	26
523.3283333333334	0	n/a	313998	KeyDown	41324	3	Middle	26
523.5083333333333	0	n/a	314106	KeyDown	41324	2	Ring	26
523.6866666666667	0	n/a	314213	KeyDown	41324	4	Index	26
523.9933333333333	0	n/a	314397	KeyDown	41324	4	Index	26
524.1066666666667	0	n/a	314465	KeyDown	41324	1	Little	26
524.2683333333333	0	n/a	314562	KeyDown	41324	3	Middle	26
524.4366666666667	0	n/a	314663	KeyDown	41324	2	Ring	26
524.6033333333334	0	n/a	314763	KeyDown	41324	4	Index	26
524.8866666666667	0	n/a	314933	KeyDown	41324	4	Index	26
524.9883333333333	0	n/a	314994	KeyDown	41324	1	Little	26
525.2116666666667	0	n/a	315128	KeyDown	41324	3	Middle	26
525.3816666666667	0	n/a	315230	KeyDown	41324	2	Ring	26
525.5483333333334	0	n/a	315330	KeyDown	41324	4	Index	26
525.8883333333333	0	n/a	315534	KeyDown	41324	4	Index	26
526.0100000000000	0	n/a	315607	KeyDown	41324	1	Little	26
526.1783333333334	0	n/a	315708	KeyDown	41324	3	Middle	26
526.3683333333333	0	n/a	315822	KeyDown	41324	2	Ring	26
526.5566666666667	0	n/a	315935	KeyDown	41324	4	Index	26
526.9050000000001	0	n/a	316144	KeyDown	41324	4	Index	26
527.0183333333333	0	n/a	316212	KeyDown	41324	1	Little	26
527.2366666666667	0	n/a	316343	KeyDown	41324	3	Middle	26
527.4066666666668	0	n/a	316445	KeyDown	41324	2	Ring	26
527.5750000000000	0	n/a	316546	KeyDown	41324	4	Index	26
527.8583333333333	0	n/a	316716	KeyDown	41324	4	Index	26
527.9633333333334	0	n/a	316779	KeyDown	41324	1	Little	26
528.1333333333333	0	n/a	316881	KeyDown	41324	3	Middle	26
528.2966666666667	0	n/a	316979	KeyDown	41324	2	Ring	26
528.4583333333334	0	n/a	317076	KeyDown	41324	4	Index	26
528.8316666666667	0	n/a	317300	KeyDown	41324	4	Index	26
528.9750000000000	0	n/a	317386	KeyDown	41324	1	Little	26
529.6166666666667	0	n/a	317771	KeyDown	41324	3	Middle	26
530.0466666666667	0	n/a	318029	KeyDown	41324	2	Ring	26
530.4716666666667	0	n/a	318284	KeyDown	41324	4	Index	26
530.7483333333333	0	n/a	318450	KeyDown	41324	1	Little	26
531.0216666666666	0	n/a	318614	KeyDown	41324	3	Middle	26
531.3916666666667	0	n/a	318836	KeyDown	41324	4	Index	26
531.5433333333334	0	n/a	318927	StopPractice	41324	n/a	n/a	26
531.5450000000001	0	n/a	318928	StartRest	XXXXX	n/a	n/a	26
541.5783333333334	0	n/a	324948	StopRest	XXXXX	n/a	n/a	26
541.5800000000000	0	UPPT001	324949	StartPractice	41324	n/a	n/a	27
542.1483333333333	0	n/a	325290	KeyDown	41324	4	Index	27
542.3100000000001	0	n/a	325387	KeyDown	41324	1	Little	27
542.5616666666667	0	n/a	325538	KeyDown	41324	3	Middle	27
542.7233333333334	0	n/a	325635	KeyDown	41324	2	Ring	27
542.8833333333333	0	n/a	325731	KeyDown	41324	4	Index	27
543.1566666666668	0	n/a	325895	KeyDown	41324	4	Index	27
543.2833333333334	0	n/a	325971	KeyDown	41324	1	Little	27
543.5633333333334	0	n/a	326139	KeyDown	41324	3	Middle	27
543.7366666666667	0	n/a	326243	KeyDown	41324	2	Ring	27
543.9033333333334	0	n/a	326343	KeyDown	41324	4	Index	27
544.2216666666667	0	n/a	326534	KeyDown	41324	4	Index	27
544.3383333333334	0	n/a	326604	KeyDown	41324	1	Little	27
544.7066666666667	0	n/a	326825	KeyDown	41324	3	Middle	27
544.9366666666667	0	n/a	326963	KeyDown	41324	2	Ring	27
545.1616666666667	0	n/a	327098	KeyDown	41324	4	Index	27
545.4316666666667	0	n/a	327260	KeyDown	41324	4	Index	27
545.5683333333334	0	n/a	327342	KeyDown	41324	1	Little	27
545.9183333333334	0	n/a	327552	KeyDown	41324	3	Middle	27
546.0916666666667	0	n/a	327656	KeyDown	41324	2	Ring	27
546.2600000000000	0	n/a	327757	KeyDown	41324	4	Index	27
546.5366666666667	0	n/a	327923	KeyDown	41324	4	Index	27
546.6566666666668	0	n/a	327995	KeyDown	41324	1	Little	27
546.9133333333334	0	n/a	328149	KeyDown	41324	3	Middle	27
547.1066666666667	0	n/a	328265	KeyDown	41324	2	Ring	27
547.2983333333334	0	n/a	328380	KeyDown	41324	4	Index	27
547.6300000000000	0	n/a	328579	KeyDown	41324	4	Index	27
547.7333333333333	0	n/a	328641	KeyDown	41324	1	Little	27
548.0116666666667	0	n/a	328808	KeyDown	41324	3	Middle	27
548.1783333333334	0	n/a	328908	KeyDown	41324	2	Ring	27
548.3416666666667	0	n/a	329006	KeyDown	41324	4	Index	27
548.6833333333334	0	n/a	329211	KeyDown	41324	4	Index	27
548.8200000000001	0	n/a	329293	KeyDown	41324	1	Little	27
549.1983333333334	0	n/a	329520	KeyDown	41324	3	Middle	27
549.3933333333333	0	n/a	329637	KeyDown	41324	2	Ring	27
549.5816666666667	0	n/a	329750	KeyDown	41324	4	Index	27
549.9033333333334	0	n/a	329943	KeyDown	41324	4	Index	27
550.0250000000001	0	n/a	330016	KeyDown	41324	1	Little	27
550.2266666666667	0	n/a	330137	KeyDown	41324	3	Middle	27
550.6066666666667	0	n/a	330365	KeyDown	41324	3	Middle	27
550.9716666666667	0	n/a	330584	KeyDown	41324	4	Index	27
551.1783333333334	0	n/a	330708	KeyDown	41324	1	Little	27
551.6183333333333	0	n/a	330972	StopPractice	41324	n/a	n/a	27
551.6200000000000	0	n/a	330973	StartRest	XXXXX	n/a	n/a	27
561.6533333333334	0	n/a	336993	StopRest	XXXXX	n/a	n/a	27
561.6550000000001	0	UPPT001	336994	StartPractice	41324	n/a	n/a	28
562.3500000000000	0	n/a	337411	KeyDown	41324	4	Index	28
562.4466666666667	0	n/a	337469	KeyDown	41324	1	Little	28
562.8116666666667	0	n/a	337688	KeyDown	41324	3	Middle	28
562.9850000000000	0	n/a	337792	KeyDown	41324	2	Ring	28
563.1533333333334	0	n/a	337893	KeyDown	41324	4	Index	28
563.4683333333334	0	n/a	338082	KeyDown	41324	4	Index	28
563.5966666666667	0	n/a	338159	KeyDown	41324	1	Little	28
563.9466666666667	0	n/a	338369	KeyDown	41324	3	Middle	28
564.1366666666667	0	n/a	338483	KeyDown	41324	2	Ring	28
564.3216666666667	0	n/a	338594	KeyDown	41324	4	Index	28
564.6183333333333	0	n/a	338772	KeyDown	41324	4	Index	28
564.7600000000000	0	n/a	338857	KeyDown	41324	1	Little	28
565.1500000000001	0	n/a	339091	KeyDown	41324	3	Middle	28
565.3416666666667	0	n/a	339206	KeyDown	41324	2	Ring	28
565.5283333333334	0	n/a	339318	KeyDown	41324	4	Index	28
565.8783333333333	0	n/a	339528	KeyDown	41324	4	Index	28
566.0250000000001	0	n/a	339616	KeyDown	41324	1	Little	28
566.3783333333333	0	n/a	339828	KeyDown	41324	3	Middle	28
566.5616666666667	0	n/a	339938	KeyDown	41324	2	Ring	28
566.7400000000000	0	n/a	340045	KeyDown	41324	4	Index	28
567.1083333333333	0	n/a	340266	KeyDown	41324	4	Index	28
567.4533333333334	0	n/a	340473	KeyDown	41324	1	Little	28
567.7916666666667	0	n/a	340676	KeyDown	41324	3	Middle	28
567.9800000000000	0	n/a	340789	KeyDown	41324	2	Ring	28
568.1633333333334	0	n/a	340899	KeyDown	41324	4	Index	28
568.5033333333333	0	n/a	341103	KeyDown	41324	4	Index	28
568.6583333333334	0	n/a	341196	KeyDown	41324	1	Little	28
568.9183333333334	0	n/a	341352	KeyDown	41324	3	Middle	28
569.1350000000000	0	n/a	341482	KeyDown	41324	2	Ring	28
569.3483333333334	0	n/a	341610	KeyDown	41324	4	Index	28
569.6683333333334	0	n/a	341802	KeyDown	41324	4	Index	28
569.7833333333334	0	n/a	341871	KeyDown	41324	1	Little	28
570.0666666666667	0	n/a	342041	KeyDown	41324	3	Middle	28
570.3933333333333	0	n/a	342237	KeyDown	41324	3	Middle	28
570.8833333333333	0	n/a	342531	KeyDown	41324	4	Index	28
571.2633333333333	0	n/a	342759	KeyDown	41324	1	Little	28
571.6016666666667	0	n/a	342962	KeyDown	41324	3	Middle	28
571.6933333333334	0	n/a	343017	StopPractice	41324	n/a	n/a	28
571.6950000000001	0	n/a	343018	StartRest	XXXXX	n/a	n/a	28
581.7283333333334	0	n/a	349038	StopRest	XXXXX	n/a	n/a	28
581.7300000000000	0	UPPT001	349039	StartPractice	41324	n/a	n/a	29
582.4116666666667	0	n/a	349448	KeyDown	41324	4	Index	29
582.5650000000001	0	n/a	349540	KeyDown	41324	1	Little	29
582.7983333333334	0	n/a	349680	KeyDown	41324	3	Middle	29
582.9800000000000	0	n/a	349789	KeyDown	41324	2	Ring	29
583.1583333333334	0	n/a	349896	KeyDown	41324	4	Index	29
583.4783333333334	0	n/a	350088	KeyDown	41324	4	Index	29
583.5883333333334	0	n/a	350154	KeyDown	41324	1	Little	29
583.8033333333334	0	n/a	350283	KeyDown	41324	3	Middle	29
583.9633333333334	0	n/a	350379	KeyDown	41324	2	Ring	29
584.1183333333333	0	n/a	350472	KeyDown	41324	4	Index	29
584.4133333333334	0	n/a	350649	KeyDown	41324	4	Index	29
584.5083333333333	0	n/a	350706	KeyDown	41324	1	Little	29
584.8016666666667	0	n/a	350882	KeyDown	41324	3	Middle	29
584.9766666666667	0	n/a	350987	KeyDown	41324	2	Ring	29
585.1483333333334	0	n/a	351090	KeyDown	41324	4	Index	29
585.4416666666667	0	n/a	351266	KeyDown	41324	4	Index	29
585.5483333333334	0	n/a	351330	KeyDown	41324	1	Little	29
585.8016666666667	0	n/a	351482	KeyDown	41324	3	Middle	29
585.9766666666667	0	n/a	351587	KeyDown	41324	2	Ring	29
586.1483333333334	0	n/a	351690	KeyDown	41324	4	Index	29
586.4583333333334	0	n/a	351876	KeyDown	41324	4	Index	29
586.5900000000000	0	n/a	351955	KeyDown	41324	1	Little	29
586.8683333333333	0	n/a	352122	KeyDown	41324	3	Middle	29
587.2633333333333	0	n/a	352359	KeyDown	41324	3	Middle	29
587.7466666666667	0	n/a	352649	KeyDown	41324	4	Index	29
587.9483333333334	0	n/a	352770	KeyDown	41324	1	Little	29
588.2183333333334	0	n/a	352932	KeyDown	41324	3	Middle	29
588.3816666666667	0	n/a	353030	KeyDown	41324	2	Ring	29
588.5400000000001	0	n/a	353125	KeyDown	41324	4	Index	29
588.8666666666667	0	n/a	353321	KeyDown	41324	4	Index	29
588.9766666666667	0	n/a	353387	KeyDown	41324	1	Little	29
589.2116666666667	0	n/a	353528	KeyDown	41324	3	Middle	29
589.3666666666667	0	n/a	353621	KeyDown	41324	2	Ring	29
589.5200000000000	0	n/a	353713	KeyDown	41324	4	Index	29
589.8533333333334	0	n/a	353913	KeyDown	41324	4	Index	29
589.9616666666667	0	n/a	353978	KeyDown	41324	1	Little	29
590.2183333333334	0	n/a	354132	KeyDown	41324	3	Middle	29
590.6116666666667	0	n/a	354368	KeyDown	41324	3	Middle	29
590.7833333333334	0	n/a	354471	KeyDown	41324	4	Index	29
591.1566666666668	0	n/a	354695	KeyDown	41324	4	Index	29
591.2883333333334	0	n/a	354774	KeyDown	41324	1	Little	29
591.4783333333334	0	n/a	354888	KeyDown	41324	3	Middle	29
591.7683333333333	0	n/a	355062	StopPractice	41324	n/a	n/a	29
591.7700000000000	0	n/a	355063	StartRest	XXXXX	n/a	n/a	29
601.8033333333334	0	n/a	361083	StopRest	XXXXX	n/a	n/a	29
601.8050000000001	0	UPPT001	361084	StartPractice	41324	n/a	n/a	30
602.3716666666667	0	n/a	361424	KeyDown	41324	4	Index	30
602.5216666666668	0	n/a	361514	KeyDown	41324	1	Little	30
602.7750000000001	0	n/a	361666	KeyDown	41324	3	Middle	30
602.9650000000000	0	n/a	361780	KeyDown	41324	2	Ring	30
603.1516666666668	0	n/a	361892	KeyDown	41324	4	Index	30
603.4566666666667	0	n/a	362075	KeyDown	41324	4	Index	30
603.5666666666667	0	n/a	362141	KeyDown	41324	1	Little	30
603.8033333333334	0	n/a	362283	KeyDown	41324	3	Middle	30
604.0300000000001	0	n/a	362419	KeyDown	41324	2	Ring	30
604.2533333333333	0	n/a	362553	KeyDown	41324	4	Index	30
604.8433333333334	0	n/a	362907	KeyDown	41324	4	Index	30
605.0216666666668	0	n/a	363014	KeyDown	41324	1	Little	30
605.4283333333334	0	n/a	363258	KeyDown	41324	3	Middle	30
605.6883333333334	0	n/a	363414	KeyDown	41324	2	Ring	30
605.9416666666667	0	n/a	363566	KeyDown	41324	4	Index	30
606.2183333333334	0	n/a	363732	KeyDown	41324	4	Index	30
606.3466666666667	0	n/a	363809	KeyDown	41324	1	Little	30
606.5966666666667	0	n/a	363959	KeyDown	41324	3	Middle	30
606.7716666666668	0	n/a	364064	KeyDown	41324	2	Ring	30
606.9450000000001	0	n/a	364168	KeyDown	41324	4	Index	30
607.2600000000000	0	n/a	364357	KeyDown	41324	4	Index	30
607.3800000000000	0	n/a	364429	KeyDown	41324	1	Little	30
607.5883333333334	0	n/a	364554	KeyDown	41324	3	Middle	30
607.7566666666667	0	n/a	364655	KeyDown	41324	2	Ring	30
607.9233333333334	0	n/a	364755	KeyDown	41324	4	Index	30
608.2616666666667	0	n/a	364958	KeyDown	41324	4	Index	30
608.3716666666667	0	n/a	365024	KeyDown	41324	1	Little	30
608.5666666666667	0	n/a	365141	KeyDown	41324	3	Middle	30
608.7400000000000	0	n/a	365245	KeyDown	41324	2	Ring	30
608.9116666666667	0	n/a	365348	KeyDown	41324	4	Index	30
609.2283333333334	0	n/a	365538	KeyDown	41324	4	Index	30
609.3333333333334	0	n/a	365601	KeyDown	41324	1	Little	30
609.8866666666667	0	n/a	365933	KeyDown	41324	3	Middle	30
610.0683333333334	0	n/a	366042	KeyDown	41324	2	Ring	30
610.2433333333333	0	n/a	366147	KeyDown	41324	4	Index	30
610.6333333333333	0	n/a	366381	KeyDown	41324	1	Little	30
610.9816666666667	0	n/a	366590	KeyDown	41324	4	Index	30
611.5683333333334	0	n/a	366942	KeyDown	41324	4	Index	30
611.7066666666667	0	n/a	367025	KeyDown	41324	1	Little	30
611.8433333333334	0	n/a	367107	StopPractice	41324	n/a	n/a	30
611.8450000000000	0	n/a	367108	StartRest	XXXXX	n/a	n/a	30
621.8783333333333	0	n/a	373128	StopRest	XXXXX	n/a	n/a	30
621.8800000000000	0	UPPT001	373129	StartPractice	41324	n/a	n/a	31
622.6400000000000	0	n/a	373585	KeyDown	41324	4	Index	31
622.7633333333333	0	n/a	373659	KeyDown	41324	1	Little	31
622.9633333333334	0	n/a	373779	KeyDown	41324	3	Middle	31
623.1183333333333	0	n/a	373872	KeyDown	41324	2	Ring	31
623.2700000000001	0	n/a	373963	KeyDown	41324	4	Index	31
623.6016666666667	0	n/a	374162	KeyDown	41324	4	Index	31
623.6966666666667	0	n/a	374219	KeyDown	41324	1	Little	31
623.8833333333333	0	n/a	374331	KeyDown	41324	3	Middle	31
624.0600000000001	0	n/a	374437	KeyDown	41324	2	Ring	31
624.2333333333333	0	n/a	374541	KeyDown	41324	4	Index	31
624.5416666666667	0	n/a	374726	KeyDown	41324	4	Index	31
624.6333333333333	0	n/a	374781	KeyDown	41324	1	Little	31
624.8183333333334	0	n/a	374892	KeyDown	41324	3	Middle	31
624.9916666666667	0	n/a	374996	KeyDown	41324	2	Ring	31
625.1616666666667	0	n/a	375098	KeyDown	41324	4	Index	31
625.4783333333334	0	n/a	375288	KeyDown	41324	4	Index	31
625.6133333333333	0	n/a	375369	KeyDown	41324	1	Little	31
625.8100000000001	0	n/a	375487	KeyDown	41324	3	Middle	31
626.0916666666667	0	n/a	375656	KeyDown	41324	2	Ring	31
626.3716666666667	0	n/a	375824	KeyDown	41324	4	Index	31
626.7350000000000	0	n/a	376042	KeyDown	41324	4	Index	31
626.8550000000000	0	n/a	376114	KeyDown	41324	1	Little	31
627.1133333333333	0	n/a	376269	KeyDown	41324	3	Middle	31
627.3783333333333	0	n/a	376428	KeyDown	41324	2	Ring	31
627.6416666666667	0	n/a	376586	KeyDown	41324	4	Index	31
627.9966666666667	0	n/a	376799	KeyDown	41324	4	Index	31
628.1383333333333	0	n/a	376884	KeyDown	41324	1	Little	31
628.7133333333334	0	n/a	377229	KeyDown	41324	3	Middle	31
628.9200000000001	0	n/a	377353	KeyDown	41324	2	Ring	31
629.1216666666667	0	n/a	377474	KeyDown	41324	4	Index	31
629.3916666666667	0	n/a	377636	KeyDown	41324	4	Index	31
629.5116666666667	0	n/a	377708	KeyDown	41324	1	Little	31
629.7783333333334	0	n/a	377868	KeyDown	41324	3	Middle	31
629.9800000000000	0	n/a	377989	KeyDown	41324	2	Ring	31
630.1766666666667	0	n/a	378107	KeyDown	41324	4	Index	31
630.4766666666667	0	n/a	378287	KeyDown	41324	4	Index	31
630.5966666666667	0	n/a	378359	KeyDown	41324	1	Little	31
630.8616666666667	0	n/a	378518	KeyDown	41324	3	Middle	31
631.0483333333334	0	n/a	378630	KeyDown	41324	2	Ring	31
631.2316666666667	0	n/a	378740	KeyDown	41324	4	Index	31
631.5083333333333	0	n/a	378906	KeyDown	41324	4	Index	31
631.6350000000000	0	n/a	378982	KeyDown	41324	1	Little	31
631.8083333333334	0	n/a	379086	KeyDown	41324	3	Middle	31
631.9183333333334	0	n/a	379152	StopPractice	41324	n/a	n/a	31
631.9200000000001	0	n/a	379153	StartRest	XXXXX	n/a	n/a	31
641.9533333333334	0	n/a	385173	StopRest	XXXXX	n/a	n/a	31
641.9550000000000	0	UPPT001	385174	StartPractice	41324	n/a	n/a	32
642.7583333333333	0	n/a	385656	KeyDown	41324	4	Index	32
642.8800000000000	0	n/a	385729	KeyDown	41324	1	Little	32
643.0650000000001	0	n/a	385840	KeyDown	41324	3	Middle	32
643.2383333333333	0	n/a	385944	KeyDown	41324	2	Ring	32
643.4083333333334	0	n/a	386046	KeyDown	41324	4	Index	32
643.7150000000000	0	n/a	386230	KeyDown	41324	4	Index	32
643.7866666666667	0	n/a	386273	KeyDown	41324	1	Little	32
644.0116666666667	0	n/a	386408	KeyDown	41324	3	Middle	32
644.1733333333334	0	n/a	386505	KeyDown	41324	2	Ring	32
644.3350000000000	0	n/a	386602	KeyDown	41324	4	Index	32
644.6066666666667	0	n/a	386765	KeyDown	41324	4	Index	32
644.6983333333334	0	n/a	386820	KeyDown	41324	1	Little	32
644.9266666666667	0	n/a	386957	KeyDown	41324	3	Middle	32
645.0916666666667	0	n/a	387056	KeyDown	41324	2	Ring	32
645.2516666666667	0	n/a	387152	KeyDown	41324	4	Index	32
645.5616666666667	0	n/a	387338	KeyDown	41324	4	Index	32
645.6583333333334	0	n/a	387396	KeyDown	41324	1	Little	32
645.8316666666667	0	n/a	387500	KeyDown	41324	3	Middle	32
646.0066666666667	0	n/a	387605	KeyDown	41324	2	Ring	32
646.1816666666667	0	n/a	387710	KeyDown	41324	4	Index	32
646.4883333333333	0	n/a	387894	KeyDown	41324	4	Index	32
646.5783333333334	0	n/a	387948	KeyDown	41324	1	Little	32
646.8733333333333	0	n/a	388125	KeyDown	41324	3	Middle	32
647.0633333333334	0	n/a	388239	KeyDown	41324	2	Ring	32
647.2483333333333	0	n/a	388350	KeyDown	41324	4	Index	32
647.5483333333334	0	n/a	388530	KeyDown	41324	4	Index	32
647.6533333333334	0	n/a	388593	KeyDown	41324	1	Little	32
648.5483333333334	0	n/a	389130	KeyDown	41324	3	Middle	32
648.9850000000000	0	n/a	389392	KeyDown	41324	2	Ring	32
649.4133333333334	0	n/a	389649	KeyDown	41324	4	Index	32
649.5383333333334	0	n/a	389724	KeyDown	41324	1	Little	32
649.9366666666667	0	n/a	389963	KeyDown	41324	3	Middle	32
650.2950000000001	0	n/a	390178	KeyDown	41324	4	Index	32
650.6083333333333	0	n/a	390366	KeyDown	41324	4	Index	32
650.7066666666667	0	n/a	390425	KeyDown	41324	1	Little	32
651.0800000000000	0	n/a	390649	KeyDown	41324	3	Middle	32
651.2583333333333	0	n/a	390756	KeyDown	41324	2	Ring	32
651.4333333333334	0	n/a	390861	KeyDown	41324	4	Index	32
651.7383333333333	0	n/a	391044	KeyDown	41324	4	Index	32
651.8750000000000	0	n/a	391126	KeyDown	41324	1	Little	32
651.9933333333333	0	n/a	391197	StopPractice	41324	n/a	n/a	32
651.9950000000000	0	n/a	391198	StartRest	XXXXX	n/a	n/a	32
662.0266666666668	0	n/a	397217	StopRest	XXXXX	n/a	n/a	32
662.0283333333334	0	UPPT001	397218	StartPractice	41324	n/a	n/a	33
662.8433333333334	0	n/a	397707	KeyDown	41324	4	Index	33
662.9683333333334	0	n/a	397782	KeyDown	41324	1	Little	33
663.2950000000001	0	n/a	397978	KeyDown	41324	3	Middle	33
663.4666666666667	0	n/a	398081	KeyDown	41324	2	Ring	33
663.6316666666667	0	n/a	398180	KeyDown	41324	4	Index	33
663.9116666666667	0	n/a	398348	KeyDown	41324	4	Index	33
664.0016666666667	0	n/a	398402	KeyDown	41324	1	Little	33
664.3500000000000	0	n/a	398611	KeyDown	41324	3	Middle	33
664.5233333333334	0	n/a	398715	KeyDown	41324	2	Ring	33
664.6916666666667	0	n/a	398816	KeyDown	41324	4	Index	33
665.0050000000000	0	n/a	399004	KeyDown	41324	4	Index	33
665.1116666666667	0	n/a	399068	KeyDown	41324	1	Little	33
665.3350000000000	0	n/a	399202	KeyDown	41324	3	Middle	33
665.4916666666667	0	n/a	399296	KeyDown	41324	2	Ring	33
665.6466666666668	0	n/a	399389	KeyDown	41324	4	Index	33
665.9783333333334	0	n/a	399588	KeyDown	41324	4	Index	33
666.0750000000000	0	n/a	399646	KeyDown	41324	1	Little	33
666.2850000000001	0	n/a	399772	KeyDown	41324	3	Middle	33
666.4333333333334	0	n/a	399861	KeyDown	41324	2	Ring	33
666.5800000000000	0	n/a	399949	KeyDown	41324	4	Index	33
666.9116666666667	0	n/a	400148	KeyDown	41324	4	Index	33
667.0250000000001	0	n/a	400216	KeyDown	41324	1	Little	33
667.1866666666667	0	n/a	400313	KeyDown	41324	3	Middle	33
667.3550000000000	0	n/a	400414	KeyDown	41324	2	Ring	33
667.5216666666668	0	n/a	400514	KeyDown	41324	4	Index	33
667.8433333333334	0	n/a	400707	KeyDown	41324	4	Index	33
667.9500000000000	0	n/a	400771	KeyDown	41324	1	Little	33
668.0983333333334	0	n/a	400860	KeyDown	41324	3	Middle	33
668.2716666666668	0	n/a	400964	KeyDown	41324	2	Ring	33
668.4450000000001	0	n/a	401068	KeyDown	41324	4	Index	33
668.7700000000001	0	n/a	401263	KeyDown	41324	4	Index	33
668.8933333333334	0	n/a	401337	KeyDown	41324	1	Little	33
669.0500000000001	0	n/a	401431	KeyDown	41324	3	Middle	33
669.2233333333334	0	n/a	401535	KeyDown	41324	2	Ring	33
669.3950000000001	0	n/a	401638	KeyDown	41324	4	Index	33
669.7066666666667	0	n/a	401825	KeyDown	41324	4	Index	33
669.8100000000001	0	n/a	401887	KeyDown	41324	1	Little	33
670.0150000000000	0	n/a	402010	KeyDown	41324	3	Middle	33
670.1650000000001	0	n/a	402100	KeyDown	41324	2	Ring	33
670.3116666666667	0	n/a	402188	KeyDown	41324	4	Index	33
670.6250000000000	0	n/a	402376	KeyDown	41324	4	Index	33
670.7550000000000	0	n/a	402454	KeyDown	41324	1	Little	33
670.9000000000001	0	n/a	402541	KeyDown	41324	3	Middle	33
671.0650000000001	0	n/a	402640	KeyDown	41324	2	Ring	33
671.2266666666667	0	n/a	402737	KeyDown	41324	4	Index	33
671.5516666666667	0	n/a	402932	KeyDown	41324	4	Index	33
671.6650000000001	0	n/a	403000	KeyDown	41324	1	Little	33
671.8166666666667	0	n/a	403091	KeyDown	41324	3	Middle	33
672.0666666666667	0	n/a	403241	StopPractice	41324	n/a	n/a	33
672.0683333333334	0	n/a	403242	StartRest	XXXXX	n/a	n/a	33
682.1016666666667	0	n/a	409262	StopRest	XXXXX	n/a	n/a	33
682.1033333333334	0	UPPT001	409263	StartPractice	41324	n/a	n/a	34
682.7450000000000	0	n/a	409648	KeyDown	41324	4	Index	34
682.8666666666667	0	n/a	409721	KeyDown	41324	1	Little	34
683.0066666666667	0	n/a	409805	KeyDown	41324	3	Middle	34
683.1750000000001	0	n/a	409906	KeyDown	41324	2	Ring	34
683.3400000000000	0	n/a	410005	KeyDown	41324	4	Index	34
683.6266666666667	0	n/a	410177	KeyDown	41324	4	Index	34
683.7316666666667	0	n/a	410240	KeyDown	41324	1	Little	34
683.8833333333333	0	n/a	410331	KeyDown	41324	3	Middle	34
684.0683333333334	0	n/a	410442	KeyDown	41324	2	Ring	34
684.2516666666667	0	n/a	410552	KeyDown	41324	4	Index	34
684.5700000000001	0	n/a	410743	KeyDown	41324	4	Index	34
684.6666666666667	0	n/a	410801	KeyDown	41324	1	Little	34
684.8066666666667	0	n/a	410885	KeyDown	41324	3	Middle	34
684.9216666666667	0	n/a	410954	KeyDown	41324	2	Ring	34
685.0366666666667	0	n/a	411023	KeyDown	41324	4	Index	34
685.4750000000000	0	n/a	411286	KeyDown	41324	4	Index	34
685.5816666666667	0	n/a	411350	KeyDown	41324	1	Little	34
685.7416666666667	0	n/a	411446	KeyDown	41324	3	Middle	34
685.9800000000000	0	n/a	411589	KeyDown	41324	2	Ring	34
686.2166666666667	0	n/a	411731	KeyDown	41324	4	Index	34
686.6166666666667	0	n/a	411971	KeyDown	41324	4	Index	34
686.7450000000000	0	n/a	412048	KeyDown	41324	1	Little	34
686.9050000000001	0	n/a	412144	KeyDown	41324	3	Middle	34
687.0300000000001	0	n/a	412219	KeyDown	41324	2	Ring	34
687.1533333333334	0	n/a	412293	KeyDown	41324	4	Index	34
687.5466666666667	0	n/a	412529	KeyDown	41324	1	Little	34
687.7216666666667	0	n/a	412634	KeyDown	41324	4	Index	34
688.6100000000000	0	n/a	413167	KeyDown	41324	4	Index	34
688.7300000000000	0	n/a	413239	KeyDown	41324	1	Little	34
688.9150000000001	0	n/a	413350	KeyDown	41324	3	Middle	34
689.0800000000000	0	n/a	413449	KeyDown	41324	2	Ring	34
689.2416666666667	0	n/a	413546	KeyDown	41324	4	Index	34
689.6066666666667	0	n/a	413765	KeyDown	41324	4	Index	34
689.7216666666667	0	n/a	413834	KeyDown	41324	1	Little	34
689.9000000000001	0	n/a	413941	KeyDown	41324	3	Middle	34
690.0583333333334	0	n/a	414036	KeyDown	41324	2	Ring	34
690.2150000000000	0	n/a	414130	KeyDown	41324	4	Index	34
690.5750000000000	0	n/a	414346	KeyDown	41324	4	Index	34
690.7033333333334	0	n/a	414423	KeyDown	41324	1	Little	34
690.8450000000000	0	n/a	414508	KeyDown	41324	3	Middle	34
691.0216666666668	0	n/a	414614	KeyDown	41324	2	Ring	34
691.1966666666667	0	n/a	414719	KeyDown	41324	4	Index	34
691.5350000000001	0	n/a	414922	KeyDown	41324	4	Index	34
691.6666666666667	0	n/a	415001	KeyDown	41324	1	Little	34
691.8316666666667	0	n/a	415100	KeyDown	41324	3	Middle	34
692.1416666666668	0	n/a	415286	StopPractice	41324	n/a	n/a	34
692.1433333333334	0	n/a	415287	StartRest	XXXXX	n/a	n/a	34
702.1766666666667	0	n/a	421307	StopRest	XXXXX	n/a	n/a	34
702.1783333333334	0	UPPT001	421308	StartPractice	41324	n/a	n/a	35
702.8216666666667	0	n/a	421694	KeyDown	41324	4	Index	35
702.9350000000001	0	n/a	421762	KeyDown	41324	1	Little	35
703.2383333333333	0	n/a	421944	KeyDown	41324	1	Little	35
703.8616666666667	0	n/a	422318	KeyDown	41324	4	Index	35
703.9783333333334	0	n/a	422388	KeyDown	41324	1	Little	35
704.6483333333334	0	n/a	422790	KeyDown	41324	4	Index	35
704.8016666666667	0	n/a	422882	KeyDown	41324	1	Little	35
705.0800000000000	0	n/a	423049	KeyDown	41324	3	Middle	35
705.2450000000000	0	n/a	423148	KeyDown	41324	2	Ring	35
705.4050000000001	0	n/a	423244	KeyDown	41324	4	Index	35
705.6900000000001	0	n/a	423415	KeyDown	41324	4	Index	35
705.7950000000001	0	n/a	423478	KeyDown	41324	1	Little	35
705.9966666666667	0	n/a	423599	KeyDown	41324	3	Middle	35
706.1466666666668	0	n/a	423689	KeyDown	41324	2	Ring	35
706.2966666666667	0	n/a	423779	KeyDown	41324	4	Index	35
706.6366666666667	0	n/a	423983	KeyDown	41324	4	Index	35
706.7283333333334	0	n/a	424038	KeyDown	41324	1	Little	35
707.1216666666667	0	n/a	424274	KeyDown	41324	3	Middle	35
707.2833333333334	0	n/a	424371	KeyDown	41324	2	Ring	35
707.4416666666667	0	n/a	424466	KeyDown	41324	4	Index	35
707.7466666666667	0	n/a	424649	KeyDown	41324	4	Index	35
707.8550000000000	0	n/a	424714	KeyDown	41324	1	Little	35
708.0500000000001	0	n/a	424831	KeyDown	41324	3	Middle	35
708.2016666666667	0	n/a	424922	KeyDown	41324	2	Ring	35
708.3500000000000	0	n/a	425011	KeyDown	41324	4	Index	35
708.6600000000001	0	n/a	425197	KeyDown	41324	4	Index	35
708.7950000000001	0	n/a	425278	KeyDown	41324	1	Little	35
709.0633333333334	0	n/a	425439	KeyDown	41324	3	Middle	35
709.2466666666667	0	n/a	425549	KeyDown	41324	2	Ring	35
709.4266666666667	0	n/a	425657	KeyDown	41324	4	Index	35
709.7516666666667	0	n/a	425852	KeyDown	41324	4	Index	35
709.8650000000000	0	n/a	425920	KeyDown	41324	1	Little	35
710.0216666666668	0	n/a	426014	KeyDown	41324	3	Middle	35
710.1833333333334	0	n/a	426111	KeyDown	41324	2	Ring	35
710.3416666666667	0	n/a	426206	KeyDown	41324	4	Index	35
710.6233333333333	0	n/a	426375	KeyDown	41324	4	Index	35
710.7266666666667	0	n/a	426437	KeyDown	41324	1	Little	35
710.8783333333333	0	n/a	426528	KeyDown	41324	3	Middle	35
711.0316666666668	0	n/a	426620	KeyDown	41324	2	Ring	35
711.1850000000001	0	n/a	426712	KeyDown	41324	4	Index	35
711.4800000000000	0	n/a	426889	KeyDown	41324	4	Index	35
711.5700000000001	0	n/a	426943	KeyDown	41324	1	Little	35
711.7100000000000	0	n/a	427027	KeyDown	41324	3	Middle	35
711.8516666666667	0	n/a	427112	KeyDown	41324	2	Ring	35
711.9933333333333	0	n/a	427197	KeyDown	41324	4	Index	35
712.2166666666667	0	n/a	427331	StopPractice	41324	n/a	n/a	35
712.2183333333334	0	n/a	427332	StartRest	XXXXX	n/a	n/a	35
722.2516666666667	0	n/a	433352	StopRest	XXXXX	n/a	n/a	35
722.2533333333333	0	UPPT001	433353	StartPractice	41324	n/a	n/a	36
722.9150000000001	0	n/a	433750	KeyDown	41324	4	Index	36
723.0350000000001	0	n/a	433822	KeyDown	41324	1	Little	36
723.1816666666667	0	n/a	433910	KeyDown	41324	3	Middle	36
723.3450000000000	0	n/a	434008	KeyDown	41324	2	Ring	36
723.5050000000000	0	n/a	434104	KeyDown	41324	4	Index	36
723.7550000000000	0	n/a	434254	KeyDown	41324	4	Index	36
723.8733333333333	0	n/a	434325	KeyDown	41324	1	Little	36
723.9950000000000	0	n/a	434398	KeyDown	41324	3	Middle	36
724.1866666666667	0	n/a	434513	KeyDown	41324	2	Ring	36
724.3766666666667	0	n/a	434627	KeyDown	41324	4	Index	36
724.7300000000000	0	n/a	434839	KeyDown	41324	4	Index	36
724.8433333333334	0	n/a	434907	KeyDown	41324	1	Little	36
724.9816666666667	0	n/a	434990	KeyDown	41324	3	Middle	36
725.1750000000001	0	n/a	435106	KeyDown	41324	2	Ring	36
725.3666666666667	0	n/a	435221	KeyDown	41324	4	Index	36
725.7183333333334	0	n/a	435432	KeyDown	41324	4	Index	36
725.8616666666667	0	n/a	435518	KeyDown	41324	1	Little	36
726.1650000000001	0	n/a	435700	KeyDown	41324	3	Middle	36
726.3100000000001	0	n/a	435787	KeyDown	41324	2	Ring	36
726.4516666666667	0	n/a	435872	KeyDown	41324	4	Index	36
726.8216666666667	0	n/a	436094	KeyDown	41324	4	Index	36
726.9250000000001	0	n/a	436156	KeyDown	41324	1	Little	36
727.1100000000000	0	n/a	436267	KeyDown	41324	3	Middle	36
727.2583333333333	0	n/a	436356	KeyDown	41324	2	Ring	36
727.4050000000001	0	n/a	436444	KeyDown	41324	4	Index	36
727.7000000000000	0	n/a	436621	KeyDown	41324	4	Index	36
727.7983333333334	0	n/a	436680	KeyDown	41324	1	Little	36
728.5600000000001	0	n/a	437137	KeyDown	41324	4	Index	36
728.7533333333333	0	n/a	437253	KeyDown	41324	1	Little	36
728.9750000000000	0	n/a	437386	KeyDown	41324	3	Middle	36
729.1350000000000	0	n/a	437482	KeyDown	41324	2	Ring	36
729.2900000000001	0	n/a	437575	KeyDown	41324	4	Index	36
729.6250000000000	0	n/a	437776	KeyDown	41324	4	Index	36
729.7283333333334	0	n/a	437838	KeyDown	41324	1	Little	36
729.9566666666667	0	n/a	437975	KeyDown	41324	3	Middle	36
730.1600000000001	0	n/a	438097	KeyDown	41324	2	Ring	36
730.3616666666667	0	n/a	438218	KeyDown	41324	4	Index	36
730.6900000000001	0	n/a	438415	KeyDown	41324	4	Index	36
730.8650000000000	0	n/a	438520	KeyDown	41324	1	Little	36
731.0800000000000	0	n/a	438649	KeyDown	41324	3	Middle	36
731.2600000000000	0	n/a	438757	KeyDown	41324	2	Ring	36
731.4350000000001	0	n/a	438862	KeyDown	41324	4	Index	36
731.7366666666667	0	n/a	439043	KeyDown	41324	4	Index	36
731.8383333333334	0	n/a	439104	KeyDown	41324	1	Little	36
732.0050000000000	0	n/a	439204	KeyDown	41324	3	Middle	36
732.2916666666667	0	n/a	439376	StopPractice	41324	n/a	n/a	36
732.2933333333334	0	n/a	439377	StartRest	XXXXX	n/a	n/a	36
742.3283333333334	0	n/a	445398	StopRest	XXXXX	n/a	n/a	36
