onset	duration	channel	onset_sample_idx	event_type	target_sequence	keypress_id	finger_label	trial_number
21.5650000000000	0	UPPT001	12940	StartPractice	41324	n/a	n/a	1
23.1383333333333	0	n/a	13884	KeyDown	41324	4	Index	1
23.5316666666667	0	n/a	14120	KeyDown	41324	1	Little	1
24.0116666666667	0	n/a	14408	KeyDown	41324	3	Middle	1
24.3766666666667	0	n/a	14627	KeyDown	41324	2	Ring	1
24.6633333333333	0	n/a	14799	KeyDown	41324	4	Index	1
25.8383333333333	0	n/a	15504	KeyDown	41324	4	Index	1
26.1716666666667	0	n/a	15704	KeyDown	41324	1	Little	1
26.6200000000000	0	n/a	15973	KeyDown	41324	3	Middle	1
26.9333333333333	0	n/a	16161	KeyDown	41324	2	Ring	1
27.2400000000000	0	n/a	16345	KeyDown	41324	4	Index	1
28.1050000000000	0	n/a	16864	KeyDown	41324	4	Index	1
28.4466666666667	0	n/a	17069	KeyDown	41324	1	Little	1
28.9150000000000	0	n/a	17350	KeyDown	41324	3	Middle	1
30.5583333333333	0	n/a	18336	KeyDown	41324	2	Ring	1
31.1150000000000	0	n/a	18670	KeyDown	41324	4	Index	1
31.6033333333333	0	n/a	18963	StopPractice	41324	n/a	n/a	1
31.6050000000000	0	n/a	18964	StartRest	XXXXX	n/a	n/a	1
41.6450000000000	0	n/a	24988	StopRest	XXXXX	n/a	n/a	1
41.6466666666667	0	UPPT001	24989	StartPractice	41324	n/a	n/a	2
43.5200000000000	0	n/a	26113	KeyDown	41324	4	Index	2
43.9350000000000	0	n/a	26362	KeyDown	41324	1	Little	2
45.1633333333333	0	n/a	27099	KeyDown	41324	3	Middle	2
45.8500000000000	0	n/a	27511	KeyDown	41324	2	Ring	2
46.2333333333333	0	n/a	27741	KeyDown	41324	4	Index	2
47.0133333333333	0	n/a	28209	KeyDown	41324	4	Index	2
47.5650000000000	0	n/a	28540	KeyDown	41324	1	Little	2
47.9600000000000	0	n/a	28777	KeyDown	41324	3	Middle	2
48.2700000000000	0	n/a	28963	KeyDown	41324	2	Ring	2
48.6050000000000	0	n/a	29164	KeyDown	41324	4	Index	2
49.1816666666667	0	n/a	29510	KeyDown	41324	4	Index	2
49.4416666666667	0	n/a	29666	KeyDown	41324	1	Little	2
49.7800000000000	0	n/a	29869	KeyDown	41324	3	Middle	2
50.4150000000000	0	n/a	30250	KeyDown	41324	2	Ring	2
50.7550000000000	0	n/a	30454	KeyDown	41324	4	Index	2
51.1850000000000	0	n/a	30712	KeyDown	41324	4	Index	2
51.4683333333333	0	n/a	30882	KeyDown	41324	1	Little	2
51.6850000000000	0	n/a	31012	StopPractice	41324	n/a	n/a	2
51.6866666666667	0	n/a	31013	StartRest	XXXXX	n/a	n/a	2
61.7200000000000	0	n/a	37033	StopRest	XXXXX	n/a	n/a	2
61.7216666666667	0	UPPT001	37034	StartPractice	41324	n/a	n/a	3
62.7883333333333	0	n/a	37674	KeyDown	41324	4	Index	3
63.1050000000000	0	n/a	37864	KeyDown	41324	1	Little	3
63.4583333333333	0	n/a	38076	KeyDown	41324	3	Middle	3
64.0950000000000	0	n/a	38458	KeyDown	41324	2	Ring	3
64.3033333333333	0	n/a	38583	KeyDown	41324	4	Index	3
64.9133333333333	0	n/a	38949	KeyDown	41324	4	Index	3
65.2600000000000	0	n/a	39157	KeyDown	41324	1	Little	3
65.6050000000000	0	n/a	39364	KeyDown	41324	3	Middle	3
65.8916666666667	0	n/a	39536	KeyDown	41324	2	Ring	3
66.1133333333333	0	n/a	39669	KeyDown	41324	4	Index	3
66.5300000000000	0	n/a	39919	KeyDown	41324	4	Index	3
66.7483333333333	0	n/a	40050	KeyDown	41324	1	Little	3
67.0400000000000	0	n/a	40225	KeyDown	41324	3	Middle	3
67.3000000000000	0	n/a	40381	KeyDown	41324	2	Ring	3
67.5183333333333	0	n/a	40512	KeyDown	41324	4	Index	3
67.9233333333333	0	n/a	40755	KeyDown	41324	4	Index	3
68.1533333333333	0	n/a	40893	KeyDown	41324	1	Little	3
68.4850000000000	0	n/a	41092	KeyDown	41324	3	Middle	3
68.7483333333333	0	n/a	41250	KeyDown	41324	2	Ring	3
68.9866666666667	0	n/a	41393	KeyDown	41324	4	Index	3
69.3000000000000	0	n/a	41581	KeyDown	41324	4	Index	3
69.5300000000000	0	n/a	41719	KeyDown	41324	1	Little	3
70.1366666666667	0	n/a	42083	KeyDown	41324	3	Middle	3
70.3833333333333	0	n/a	42231	KeyDown	41324	2	Ring	3
70.5733333333333	0	n/a	42345	KeyDown	41324	4	Index	3
70.8550000000000	0	n/a	42514	KeyDown	41324	4	Index	3
71.0683333333333	0	n/a	42642	KeyDown	41324	1	Little	3
71.4000000000000	0	n/a	42841	KeyDown	41324	3	Middle	3
71.6100000000000	0	n/a	42967	KeyDown	41324	2	Ring	3
71.7600000000000	0	n/a	43057	StopPractice	41324	n/a	n/a	3
71.7616666666667	0	n/a	43058	StartRest	XXXXX	n/a	n/a	3
81.7950000000000	0	n/a	49078	StopRest	XXXXX	n/a	n/a	3
81.7966666666667	0	UPPT001	49079	StartPractice	41324	n/a	n/a	4
82.6416666666667	0	n/a	49586	KeyDown	41324	4	Index	4
82.8100000000000	0	n/a	49687	KeyDown	41324	1	Little	4
83.0233333333333	0	n/a	49815	KeyDown	41324	3	Middle	4
83.2316666666667	0	n/a	49940	KeyDown	41324	2	Ring	4
83.3983333333333	0	n/a	50040	KeyDown	41324	4	Index	4
83.7083333333333	0	n/a	50226	KeyDown	41324	4	Index	4
83.8766666666667	0	n/a	50327	KeyDown	41324	1	Little	4
84.4566666666667	0	n/a	50675	KeyDown	41324	3	Middle	4
84.7066666666667	0	n/a	50825	KeyDown	41324	2	Ring	4
84.9616666666667	0	n/a	50978	KeyDown	41324	4	Index	4
85.2666666666667	0	n/a	51161	KeyDown	41324	4	Index	4
85.4633333333333	0	n/a	51279	KeyDown	41324	1	Little	4
85.6983333333333	0	n/a	51420	KeyDown	41324	3	Middle	4
85.8900000000000	0	n/a	51535	KeyDown	41324	2	Ring	4
86.0750000000000	0	n/a	51646	KeyDown	41324	4	Index	4
86.3383333333333	0	n/a	51804	KeyDown	41324	4	Index	4
86.5100000000000	0	n/a	51907	KeyDown	41324	1	Little	4
86.8900000000000	0	n/a	52135	KeyDown	41324	3	Middle	4
87.1766666666667	0	n/a	52307	KeyDown	41324	2	Ring	4
87.3533333333333	0	n/a	52413	KeyDown	41324	4	Index	4
87.6100000000000	0	n/a	52567	KeyDown	41324	4	Index	4
87.8233333333333	0	n/a	52695	KeyDown	41324	1	Little	4
88.1466666666667	0	n/a	52889	KeyDown	41324	3	Middle	4
88.3916666666667	0	n/a	53036	KeyDown	41324	2	Ring	4
88.5583333333333	0	n/a	53136	KeyDown	41324	3	Middle	4
89.1633333333333	0	n/a	53499	KeyDown	41324	4	Index	4
89.4283333333333	0	n/a	53658	KeyDown	41324	1	Little	4
89.9083333333333	0	n/a	53946	KeyDown	41324	3	Middle	4
90.1466666666667	0	n/a	54089	KeyDown	41324	2	Ring	4
90.3200000000000	0	n/a	54193	KeyDown	41324	4	Index	4
90.5766666666667	0	n/a	54347	KeyDown	41324	4	Index	4
90.7683333333333	0	n/a	54462	KeyDown	41324	1	Little	4
91.0600000000000	0	n/a	54637	KeyDown	41324	3	Middle	4
91.2850000000000	0	n/a	54772	KeyDown	41324	2	Ring	4
91.4500000000000	0	n/a	54871	KeyDown	41324	4	Index	4
91.7083333333333	0	n/a	55026	KeyDown	41324	4	Index	4
91.8350000000000	0	n/a	55102	StopPractice	41324	n/a	n/a	4
91.8366666666667	0	n/a	55103	StartRest	XXXXX	n/a	n/a	4
101.8700000000000	0	n/a	61123	StopRest	XXXXX	n/a	n/a	4
101.8716666666667	0	UPPT001	61124	StartPractice	41324	n/a	n/a	5
102.7050000000000	0	n/a	61624	KeyDown	41324	4	Index	5
103.0700000000000	0	n/a	61843	KeyDown	41324	1	Little	5
103.3083333333333	0	n/a	61986	KeyDown	41324	3	Middle	5
103.5250000000000	0	n/a	62116	KeyDown	41324	2	Ring	5
103.6883333333333	0	n/a	62214	KeyDown	41324	4	Index	5
103.9283333333333	0	n/a	62358	KeyDown	41324	4	Index	5
104.1200000000000	0	n/a	62473	KeyDown	41324	1	Little	5
104.3500000000000	0	n/a	62611	KeyDown	41324	3	Middle	5
104.5600000000000	0	n/a	62737	KeyDown	41324	2	Ring	5
104.7416666666667	0	n/a	62846	KeyDown	41324	4	Index	5
104.9666666666667	0	n/a	62981	KeyDown	41324	4	Index	5
105.1916666666667	0	n/a	63116	KeyDown	41324	1	Little	5
105.5700000000000	0	n/a	63343	KeyDown	41324	3	Middle	5
105.7933333333333	0	n/a	63477	KeyDown	41324	2	Ring	5
105.9883333333333	0	n/a	63594	KeyDown	41324	4	Index	5
106.3733333333333	0	n/a	63825	KeyDown	41324	4	Index	5
106.5950000000000	0	n/a	63958	KeyDown	41324	1	Little	5
106.8800000000000	0	n/a	64129	KeyDown	41324	3	Middle	5
107.1283333333333	0	n/a	64278	KeyDown	41324	2	Ring	5
107.3366666666667	0	n/a	64403	KeyDown	41324	4	Index	5
107.6183333333333	0	n/a	64572	KeyDown	41324	4	Index	5
107.8133333333333	0	n/a	64689	KeyDown	41324	1	Little	5
108.1850000000000	0	n/a	64912	KeyDown	41324	3	Middle	5
108.4133333333333	0	n/a	65049	KeyDown	41324	2	Ring	5
108.7033333333333	0	n/a	65223	KeyDown	41324	4	Index	5
108.9916666666667	0	n/a	65396	KeyDown	41324	4	Index	5
109.1966666666667	0	n/a	65519	KeyDown	41324	1	Little	5
109.5333333333333	0	n/a	65721	KeyDown	41324	3	Middle	5
109.7783333333333	0	n/a	65868	KeyDown	41324	2	Ring	5
110.1900000000000	0	n/a	66115	KeyDown	41324	4	Index	5
110.4850000000000	0	n/a	66292	KeyDown	41324	4	Index	5
110.6683333333333	0	n/a	66402	KeyDown	41324	1	Little	5
110.9883333333333	0	n/a	66594	KeyDown	41324	3	Middle	5
111.2733333333333	0	n/a	66765	KeyDown	41324	2	Ring	5
111.4783333333333	0	n/a	66888	KeyDown	41324	4	Index	5
111.7366666666667	0	n/a	67043	KeyDown	41324	4	Index	5
111.9100000000000	0	n/a	67147	StopPractice	41324	n/a	n/a	5
111.9116666666667	0	n/a	67148	StartRest	XXXXX	n/a	n/a	5
121.9450000000000	0	n/a	73168	StopRest	XXXXX	n/a	n/a	5
121.9466666666667	0	UPPT001	73169	StartPractice	41324	n/a	n/a	6
122.5716666666667	0	n/a	73544	KeyDown	41324	4	Index	6
122.8433333333333	0	n/a	73707	KeyDown	41324	1	Little	6
123.2333333333333	0	n/a	73941	KeyDown	41324	3	Middle	6
123.4000000000000	0	n/a	74041	KeyDown	41324	2	Ring	6
123.5800000000000	0	n/a	74149	KeyDown	41324	4	Index	6
123.8133333333333	0	n/a	74289	KeyDown	41324	4	Index	6
124.0050000000000	0	n/a	74404	KeyDown	41324	1	Little	6
124.2050000000000	0	n/a	74524	KeyDown	41324	3	Middle	6
124.4550000000000	0	n/a	74674	KeyDown	41324	2	Ring	6
124.6116666666667	0	n/a	74768	KeyDown	41324	4	Index	6
124.8483333333333	0	n/a	74910	KeyDown	41324	4	Index	6
125.0333333333333	0	n/a	75021	KeyDown	41324	1	Little	6
125.2666666666667	0	n/a	75161	KeyDown	41324	3	Middle	6
125.5750000000000	0	n/a	75346	KeyDown	41324	2	Ring	6
125.7633333333333	0	n/a	75459	KeyDown	41324	4	Index	6
126.0800000000000	0	n/a	75649	KeyDown	41324	4	Index	6
126.2433333333333	0	n/a	75747	KeyDown	41324	1	Little	6
126.4850000000000	0	n/a	75892	KeyDown	41324	4	Index	6
127.3183333333333	0	n/a	76392	KeyDown	41324	2	Ring	6
127.6516666666667	0	n/a	76592	KeyDown	41324	4	Index	6
128.0433333333334	0	n/a	76827	KeyDown	41324	4	Index	6
128.2566666666667	0	n/a	76955	KeyDown	41324	1	Little	6
128.4833333333333	0	n/a	77091	KeyDown	41324	3	Middle	6
128.7483333333333	0	n/a	77250	KeyDown	41324	2	Ring	6
128.9033333333333	0	n/a	77343	KeyDown	41324	4	Index	6
129.1833333333333	0	n/a	77511	KeyDown	41324	4	Index	6
129.3666666666667	0	n/a	77621	KeyDown	41324	1	Little	6
129.6666666666667	0	n/a	77801	KeyDown	41324	3	Middle	6
129.8783333333333	0	n/a	77928	KeyDown	41324	2	Ring	6
130.0500000000000	0	n/a	78031	KeyDown	41324	4	Index	6
130.3333333333333	0	n/a	78201	KeyDown	41324	4	Index	6
130.4883333333333	0	n/a	78294	KeyDown	41324	1	Little	6
130.7466666666667	0	n/a	78449	KeyDown	41324	3	Middle	6
130.9533333333333	0	n/a	78573	KeyDown	41324	2	Ring	6
131.1633333333334	0	n/a	78699	KeyDown	41324	4	Index	6
131.4500000000000	0	n/a	78871	KeyDown	41324	4	Index	6
131.6300000000000	0	n/a	78979	KeyDown	41324	1	Little	6
131.9133333333334	0	n/a	79149	KeyDown	41324	3	Middle	6
131.9850000000000	0	n/a	79192	StopPractice	41324	n/a	n/a	6
131.9866666666667	0	n/a	79193	StartRest	XXXXX	n/a	n/a	6
142.0183333333333	0	n/a	85212	StopRest	XXXXX	n/a	n/a	6
142.0200000000000	0	UPPT001	85213	StartPractice	41324	n/a	n/a	7
142.6050000000000	0	n/a	85564	KeyDown	41324	4	Index	7
142.7200000000000	0	n/a	85633	KeyDown	41324	1	Little	7
142.9450000000000	0	n/a	85768	KeyDown	41324	3	Middle	7
143.1166666666667	0	n/a	85871	KeyDown	41324	2	Ring	7
143.3000000000000	0	n/a	85981	KeyDown	41324	4	Index	7
143.5350000000000	0	n/a	86122	KeyDown	41324	4	Index	7
143.6900000000000	0	n/a	86215	KeyDown	41324	1	Little	7
143.9516666666667	0	n/a	86372	KeyDown	41324	3	Middle	7
144.1716666666667	0	n/a	86504	KeyDown	41324	2	Ring	7
144.3183333333334	0	n/a	86592	KeyDown	41324	4	Index	7
144.5566666666667	0	n/a	86735	KeyDown	41324	4	Index	7
144.6966666666667	0	n/a	86819	KeyDown	41324	1	Little	7
144.9350000000000	0	n/a	86962	KeyDown	41324	3	Middle	7
145.2700000000000	0	n/a	87163	KeyDown	41324	2	Ring	7
145.4683333333333	0	n/a	87282	KeyDown	41324	4	Index	7
145.7416666666667	0	n/a	87446	KeyDown	41324	4	Index	7
145.9250000000000	0	n/a	87556	KeyDown	41324	1	Little	7
146.2066666666667	0	n/a	87725	KeyDown	41324	3	Middle	7
146.4616666666667	0	n/a	87878	KeyDown	41324	2	Ring	7
146.6016666666667	0	n/a	87962	KeyDown	41324	4	Index	7
146.8566666666667	0	n/a	88115	KeyDown	41324	4	Index	7
147.0100000000000	0	n/a	88207	KeyDown	41324	1	Little	7
147.2416666666667	0	n/a	88346	KeyDown	41324	3	Middle	7
147.4433333333334	0	n/a	88467	KeyDown	41324	2	Ring	7
147.5716666666667	0	n/a	88544	KeyDown	41324	3	Middle	7
148.2550000000000	0	n/a	88954	KeyDown	41324	4	Index	7
148.4416666666667	0	n/a	89066	KeyDown	41324	1	Little	7
149.2283333333334	0	n/a	89538	KeyDown	41324	3	Middle	7
149.4750000000000	0	n/a	89686	KeyDown	41324	2	Ring	7
149.5916666666667	0	n/a	89756	KeyDown	41324	4	Index	7
149.8450000000000	0	n/a	89908	KeyDown	41324	4	Index	7
150.0233333333333	0	n/a	90015	KeyDown	41324	1	Little	7
150.3166666666667	0	n/a	90191	KeyDown	41324	3	Middle	7
150.5533333333333	0	n/a	90333	KeyDown	41324	2	Ring	7
150.7883333333334	0	n/a	90474	KeyDown	41324	4	Index	7
151.0833333333333	0	n/a	90651	KeyDown	41324	4	Index	7
151.3216666666667	0	n/a	90794	KeyDown	41324	1	Little	7
151.9316666666667	0	n/a	91160	KeyDown	41324	3	Middle	7
152.0583333333333	0	n/a	91236	StopPractice	41324	n/a	n/a	7
152.0600000000000	0	n/a	91237	StartRest	XXXXX	n/a	n/a	7
162.0950000000000	0	n/a	97258	StopRest	XXXXX	n/a	n/a	7
162.0966666666667	0	UPPT001	97259	StartPractice	41324	n/a	n/a	8
162.6450000000000	0	n/a	97588	KeyDown	41324	4	Index	8
162.7466666666667	0	n/a	97649	KeyDown	41324	1	Little	8
162.9900000000000	0	n/a	97795	KeyDown	41324	3	Middle	8
163.2000000000000	0	n/a	97921	KeyDown	41324	2	Ring	8
163.3333333333333	0	n/a	98001	KeyDown	41324	4	Index	8
163.6033333333334	0	n/a	98163	KeyDown	41324	4	Index	8
163.7450000000000	0	n/a	98248	KeyDown	41324	1	Little	8
163.9633333333333	0	n/a	98379	KeyDown	41324	3	Middle	8
164.2250000000000	0	n/a	98536	KeyDown	41324	2	Ring	8
164.3950000000000	0	n/a	98638	KeyDown	41324	4	Index	8
164.7033333333333	0	n/a	98823	KeyDown	41324	4	Index	8
164.8983333333333	0	n/a	98940	KeyDown	41324	1	Little	8
165.1916666666667	0	n/a	99116	KeyDown	41324	3	Middle	8
165.4733333333334	0	n/a	99285	KeyDown	41324	2	Ring	8
165.6233333333333	0	n/a	99375	KeyDown	41324	4	Index	8
165.8966666666667	0	n/a	99539	KeyDown	41324	4	Index	8
166.0533333333333	0	n/a	99633	KeyDown	41324	1	Little	8
166.3200000000000	0	n/a	99793	KeyDown	41324	3	Middle	8
166.5450000000000	0	n/a	99928	KeyDown	41324	2	Ring	8
166.7233333333334	0	n/a	100035	KeyDown	41324	4	Index	8
166.9983333333333	0	n/a	100200	KeyDown	41324	4	Index	8
167.2766666666667	0	n/a	100367	KeyDown	41324	1	Little	8
167.6766666666667	0	n/a	100607	KeyDown	41324	3	Middle	8
167.9683333333333	0	n/a	100782	KeyDown	41324	2	Ring	8
168.1216666666667	0	n/a	100874	KeyDown	41324	4	Index	8
168.3933333333333	0	n/a	101037	KeyDown	41324	4	Index	8
168.5383333333334	0	n/a	101124	KeyDown	41324	1	Little	8
168.8183333333334	0	n/a	101292	KeyDown	41324	3	Middle	8
169.4166666666667	0	n/a	101651	KeyDown	41324	2	Ring	8
169.6550000000000	0	n/a	101794	KeyDown	41324	4	Index	8
170.0500000000000	0	n/a	102031	KeyDown	41324	4	Index	8
170.1933333333334	0	n/a	102117	KeyDown	41324	1	Little	8
170.4766666666667	0	n/a	102287	KeyDown	41324	3	Middle	8
170.7600000000000	0	n/a	102457	KeyDown	41324	2	Ring	8
170.9866666666667	0	n/a	102593	KeyDown	41324	4	Index	8
171.3083333333333	0	n/a	102786	KeyDown	41324	4	Index	8
171.4416666666667	0	n/a	102866	KeyDown	41324	1	Little	8
171.7333333333333	0	n/a	103041	KeyDown	41324	3	Middle	8
172.0150000000000	0	n/a	103210	KeyDown	41324	2	Ring	8
172.1350000000000	0	n/a	103282	StopPractice	41324	n/a	n/a	8
172.1366666666667	0	n/a	103283	StartRest	XXXXX	n/a	n/a	8
182.1700000000000	0	n/a	109303	StopRest	XXXXX	n/a	n/a	8
182.1716666666667	0	UPPT001	109304	StartPractice	41324	n/a	n/a	9
182.7983333333333	0	n/a	109680	KeyDown	41324	4	Index	9
183.0016666666667	0	n/a	109802	KeyDown	41324	1	Little	9
183.2700000000000	0	n/a	109963	KeyDown	41324	3	Middle	9
183.4300000000000	0	n/a	110059	KeyDown	41324	2	Ring	9
183.6233333333333	0	n/a	110175	KeyDown	41324	4	Index	9
183.8716666666667	0	n/a	110324	KeyDown	41324	4	Index	9
183.9883333333333	0	n/a	110394	KeyDown	41324	1	Little	9
184.3083333333333	0	n/a	110586	KeyDown	41324	3	Middle	9
184.5850000000000	0	n/a	110752	KeyDown	41324	2	Ring	9
184.8000000000000	0	n/a	110881	KeyDown	41324	4	Index	9
185.0566666666667	0	n/a	111035	KeyDown	41324	4	Index	9
185.2233333333334	0	n/a	111135	KeyDown	41324	1	Little	9
185.6933333333334	0	n/a	111417	KeyDown	41324	3	Middle	9
185.9666666666667	0	n/a	111581	KeyDown	41324	2	Ring	9
186.1883333333333	0	n/a	111714	KeyDown	41324	4	Index	9
186.4550000000000	0	n/a	111874	KeyDown	41324	4	Index	9
186.6150000000000	0	n/a	111970	KeyDown	41324	1	Little	9
187.0033333333334	0	n/a	112203	KeyDown	41324	3	Middle	9
187.2766666666667	0	n/a	112367	KeyDown	41324	2	Ring	9
187.4783333333334	0	n/a	112488	KeyDown	41324	4	Index	9
187.7583333333334	0	n/a	112656	KeyDown	41324	4	Index	9
187.9000000000000	0	n/a	112741	KeyDown	41324	1	Little	9
188.1683333333334	0	n/a	112902	KeyDown	41324	3	Middle	9
188.4183333333334	0	n/a	113052	KeyDown	41324	2	Ring	9
188.6133333333333	0	n/a	113169	KeyDown	41324	4	Index	9
188.8833333333334	0	n/a	113331	KeyDown	41324	4	Index	9
189.0750000000000	0	n/a	113446	KeyDown	41324	1	Little	9
189.5283333333333	0	n/a	113718	KeyDown	41324	3	Middle	9
189.7583333333334	0	n/a	113856	KeyDown	41324	2	Ring	9
189.9550000000000	0	n/a	113974	KeyDown	41324	4	Index	9
190.2283333333334	0	n/a	114138	KeyDown	41324	4	Index	9
190.4016666666667	0	n/a	114242	KeyDown	41324	1	Little	9
190.6800000000000	0	n/a	114409	KeyDown	41324	3	Middle	9
190.9500000000000	0	n/a	114571	KeyDown	41324	2	Ring	9
191.1350000000000	0	n/a	114682	KeyDown	41324	4	Index	9
191.4000000000000	0	n/a	114841	KeyDown	41324	4	Index	9
191.5800000000000	0	n/a	114949	KeyDown	41324	1	Little	9
191.8500000000000	0	n/a	115111	KeyDown	41324	3	Middle	9
192.1300000000000	0	n/a	115279	KeyDown	41324	2	Ring	9
192.2100000000000	0	n/a	115327	StopPractice	41324	n/a	n/a	9
192.2116666666667	0	n/a	115328	StartRest	XXXXX	n/a	n/a	9
202.2433333333333	0	n/a	121347	StopRest	XXXXX	n/a	n/a	9
202.2450000000000	0	UPPT001	121348	StartPractice	41324	n/a	n/a	10
202.7966666666667	0	n/a	121679	KeyDown	41324	4	Index	10
203.7366666666667	0	n/a	122243	KeyDown	41324	1	Little	10
204.1350000000000	0	n/a	122482	KeyDown	41324	3	Middle	10
204.3283333333333	0	n/a	122598	KeyDown	41324	2	Ring	10
204.4900000000000	0	n/a	122695	KeyDown	41324	4	Index	10
204.7433333333333	0	n/a	122847	KeyDown	41324	4	Index	10
204.8983333333333	0	n/a	122940	KeyDown	41324	1	Little	10
205.1766666666667	0	n/a	123107	KeyDown	41324	3	Middle	10
205.3916666666667	0	n/a	123236	KeyDown	41324	2	Ring	10
205.5483333333333	0	n/a	123330	KeyDown	41324	4	Index	10
205.8083333333333	0	n/a	123486	KeyDown	41324	4	Index	10
205.9383333333333	0	n/a	123564	KeyDown	41324	1	Little	10
206.2266666666667	0	n/a	123737	KeyDown	41324	3	Middle	10
206.4666666666667	0	n/a	123881	KeyDown	41324	2	Ring	10
206.6283333333334	0	n/a	123978	KeyDown	41324	4	Index	10
206.8816666666667	0	n/a	124130	KeyDown	41324	4	Index	10
207.1683333333334	0	n/a	124302	KeyDown	41324	1	Little	10
207.4000000000000	0	n/a	124441	KeyDown	41324	4	Index	10
207.9716666666667	0	n/a	124784	KeyDown	41324	1	Little	10
208.5033333333334	0	n/a	125103	KeyDown	41324	4	Index	10
209.0033333333334	0	n/a	125403	KeyDown	41324	4	Index	10
209.1750000000000	0	n/a	125506	KeyDown	41324	1	Little	10
209.6666666666667	0	n/a	125801	KeyDown	41324	3	Middle	10
209.9200000000000	0	n/a	125953	KeyDown	41324	2	Ring	10
210.1150000000000	0	n/a	126070	KeyDown	41324	4	Index	10
210.4050000000000	0	n/a	126244	KeyDown	41324	4	Index	10
210.5566666666667	0	n/a	126335	KeyDown	41324	1	Little	10
210.8766666666667	0	n/a	126527	KeyDown	41324	3	Middle	10
211.1683333333334	0	n/a	126702	KeyDown	41324	2	Ring	10
211.3166666666667	0	n/a	126791	KeyDown	41324	4	Index	10
211.6150000000000	0	n/a	126970	KeyDown	41324	4	Index	10
211.8150000000000	0	n/a	127090	KeyDown	41324	1	Little	10
212.1033333333334	0	n/a	127263	KeyDown	41324	3	Middle	10
212.2833333333334	0	n/a	127371	StopPractice	41324	n/a	n/a	10
212.2850000000000	0	n/a	127372	StartRest	XXXXX	n/a	n/a	10
222.3183333333334	0	n/a	133392	StopRest	XXXXX	n/a	n/a	10
222.3200000000000	0	UPPT001	133393	StartPractice	41324	n/a	n/a	11
222.9766666666667	0	n/a	133787	KeyDown	41324	4	Index	11
223.2833333333334	0	n/a	133971	KeyDown	41324	1	Little	11
223.5816666666667	0	n/a	134150	KeyDown	41324	3	Middle	11
223.8816666666667	0	n/a	134330	KeyDown	41324	2	Ring	11
224.1433333333333	0	n/a	134487	KeyDown	41324	4	Index	11
224.3966666666667	0	n/a	134639	KeyDown	41324	4	Index	11
224.5716666666667	0	n/a	134744	KeyDown	41324	1	Little	11
224.7966666666667	0	n/a	134879	KeyDown	41324	3	Middle	11
225.0216666666667	0	n/a	135014	KeyDown	41324	2	Ring	11
225.1716666666667	0	n/a	135104	KeyDown	41324	4	Index	11
225.4300000000000	0	n/a	135259	KeyDown	41324	4	Index	11
225.5583333333333	0	n/a	135336	KeyDown	41324	1	Little	11
225.8350000000000	0	n/a	135502	KeyDown	41324	3	Middle	11
226.1300000000000	0	n/a	135679	KeyDown	41324	2	Ring	11
226.2666666666667	0	n/a	135761	KeyDown	41324	4	Index	11
226.5183333333333	0	n/a	135912	KeyDown	41324	4	Index	11
226.6583333333334	0	n/a	135996	KeyDown	41324	1	Little	11
226.8766666666667	0	n/a	136127	KeyDown	41324	3	Middle	11
227.2233333333334	0	n/a	136335	KeyDown	41324	2	Ring	11
227.3666666666667	0	n/a	136421	KeyDown	41324	4	Index	11
227.6383333333333	0	n/a	136584	KeyDown	41324	4	Index	11
227.7916666666667	0	n/a	136676	KeyDown	41324	1	Little	11
228.0400000000000	0	n/a	136825	KeyDown	41324	3	Middle	11
228.8983333333333	0	n/a	137340	KeyDown	41324	2	Ring	11
229.1266666666667	0	n/a	137477	KeyDown	41324	4	Index	11
229.4583333333333	0	n/a	137676	KeyDown	41324	4	Index	11
229.6333333333334	0	n/a	137781	KeyDown	41324	1	Little	11
230.1000000000000	0	n/a	138061	KeyDown	41324	3	Middle	11
230.7033333333333	0	n/a	138423	KeyDown	41324	2	Ring	11
230.9616666666667	0	n/a	138578	KeyDown	41324	4	Index	11
231.2566666666667	0	n/a	138755	KeyDown	41324	4	Index	11
231.4733333333334	0	n/a	138885	KeyDown	41324	1	Little	11
231.8116666666667	0	n/a	139088	KeyDown	41324	3	Middle	11
232.0783333333333	0	n/a	139248	KeyDown	41324	2	Ring	11
232.3300000000000	0	n/a	139399	KeyDown	41324	4	Index	11
232.3583333333333	0	n/a	139416	StopPractice	41324	n/a	n/a	11
232.3600000000000	0	n/a	139417	StartRest	XXXXX	n/a	n/a	11
242.3950000000000	0	n/a	145438	StopRest	XXXXX	n/a	n/a	11
242.3966666666667	0	UPPT001	145439	StartPractice	41324	n/a	n/a	12
243.6150000000000	0	n/a	146170	KeyDown	41324	4	Index	12
243.7650000000000	0	n/a	146260	KeyDown	41324	1	Little	12
244.0216666666667	0	n/a	146414	KeyDown	41324	3	Middle	12
244.2316666666667	0	n/a	146540	KeyDown	41324	2	Ring	12
244.3633333333333	0	n/a	146619	KeyDown	41324	4	Index	12
244.6200000000000	0	n/a	146773	KeyDown	41324	4	Index	12
244.7650000000000	0	n/a	146860	KeyDown	41324	1	Little	12
245.1800000000000	0	n/a	147109	KeyDown	41324	3	Middle	12
245.6133333333333	0	n/a	147369	KeyDown	41324	2	Ring	12
245.7616666666667	0	n/a	147458	KeyDown	41324	4	Index	12
246.0550000000000	0	n/a	147634	KeyDown	41324	4	Index	12
246.1933333333334	0	n/a	147717	KeyDown	41324	1	Little	12
246.5633333333334	0	n/a	147939	KeyDown	41324	3	Middle	12
246.7883333333334	0	n/a	148074	KeyDown	41324	2	Ring	12
246.9750000000000	0	n/a	148186	KeyDown	41324	4	Index	12
247.2433333333333	0	n/a	148347	KeyDown	41324	4	Index	12
247.3850000000000	0	n/a	148432	KeyDown	41324	1	Little	12
248.0016666666667	0	n/a	148802	KeyDown	41324	3	Middle	12
248.2633333333333	0	n/a	148959	KeyDown	41324	2	Ring	12
248.4633333333333	0	n/a	149079	KeyDown	41324	4	Index	12
248.7733333333333	0	n/a	149265	KeyDown	41324	4	Index	12
248.9150000000000	0	n/a	149350	KeyDown	41324	1	Little	12
249.3950000000000	0	n/a	149638	KeyDown	41324	3	Middle	12
249.6350000000000	0	n/a	149782	KeyDown	41324	2	Ring	12
249.9150000000000	0	n/a	149950	KeyDown	41324	4	Index	12
250.2400000000000	0	n/a	150145	KeyDown	41324	4	Index	12
250.4700000000000	0	n/a	150283	KeyDown	41324	1	Little	12
250.7300000000000	0	n/a	150439	KeyDown	41324	3	Middle	12
251.0250000000000	0	n/a	150616	KeyDown	41324	2	Ring	12
251.1783333333333	0	n/a	150708	KeyDown	41324	4	Index	12
251.4600000000000	0	n/a	150877	KeyDown	41324	4	Index	12
251.8283333333333	0	n/a	151098	KeyDown	41324	1	Little	12
252.4350000000000	0	n/a	151462	StopPractice	41324	n/a	n/a	12
252.4366666666667	0	n/a	151463	StartRest	XXXXX	n/a	n/a	12
262.4683333333334	0	n/a	157482	StopRest	XXXXX	n/a	n/a	12
262.4700000000000	0	UPPT001	157483	StartPractice	41324	n/a	n/a	13
263.4266666666667	0	n/a	158057	KeyDown	41324	4	Index	13
263.9366666666667	0	n/a	158363	KeyDown	41324	1	Little	13
264.3200000000000	0	n/a	158593	KeyDown	41324	3	Middle	13
264.5916666666667	0	n/a	158756	KeyDown	41324	2	Ring	13
264.7066666666667	0	n/a	158825	KeyDown	41324	4	Index	13
264.9716666666667	0	n/a	158984	KeyDown	41324	4	Index	13
265.1216666666667	0	n/a	159074	KeyDown	41324	1	Little	13
265.4083333333334	0	n/a	159246	KeyDown	41324	3	Middle	13
265.6466666666667	0	n/a	159389	KeyDown	41324	2	Ring	13
265.7766666666667	0	n/a	159467	KeyDown	41324	4	Index	13
266.0366666666667	0	n/a	159623	KeyDown	41324	4	Index	13
266.2316666666667	0	n/a	159740	KeyDown	41324	1	Little	13
266.5566666666667	0	n/a	159935	KeyDown	41324	3	Middle	13
266.8250000000000	0	n/a	160096	KeyDown	41324	2	Ring	13
266.9766666666667	0	n/a	160187	KeyDown	41324	4	Index	13
267.2416666666667	0	n/a	160346	KeyDown	41324	4	Index	13
267.5316666666667	0	n/a	160520	KeyDown	41324	1	Little	13
267.8566666666667	0	n/a	160715	KeyDown	41324	3	Middle	13
268.1033333333334	0	n/a	160863	KeyDown	41324	2	Ring	13
268.2666666666667	0	n/a	160961	KeyDown	41324	4	Index	13
268.5500000000000	0	n/a	161131	KeyDown	41324	4	Index	13
269.0016666666667	0	n/a	161402	KeyDown	41324	1	Little	13
269.4533333333334	0	n/a	161673	KeyDown	41324	3	Middle	13
269.7016666666667	0	n/a	161822	KeyDown	41324	2	Ring	13
269.8866666666667	0	n/a	161933	KeyDown	41324	4	Index	13
270.1866666666667	0	n/a	162113	KeyDown	41324	4	Index	13
270.6600000000000	0	n/a	162397	KeyDown	41324	1	Little	13
271.1183333333333	0	n/a	162672	KeyDown	41324	3	Middle	13
271.3533333333334	0	n/a	162813	KeyDown	41324	2	Ring	13
271.6533333333334	0	n/a	162993	KeyDown	41324	4	Index	13
271.8966666666667	0	n/a	163139	KeyDown	41324	4	Index	13
272.2116666666667	0	n/a	163328	KeyDown	41324	1	Little	13
272.5083333333333	0	n/a	163506	StopPractice	41324	n/a	n/a	13
272.5100000000000	0	n/a	163507	StartRest	XXXXX	n/a	n/a	13
282.5433333333334	0	n/a	169527	StopRest	XXXXX	n/a	n/a	13
282.5450000000000	0	UPPT001	169528	StartPractice	41324	n/a	n/a	14
283.7033333333334	0	n/a	170223	KeyDown	41324	4	Index	14
283.8116666666667	0	n/a	170288	KeyDown	41324	1	Little	14
284.0733333333333	0	n/a	170445	KeyDown	41324	3	Middle	14
284.3166666666667	0	n/a	170591	KeyDown	41324	2	Ring	14
284.4483333333333	0	n/a	170670	KeyDown	41324	4	Index	14
284.6833333333333	0	n/a	170811	KeyDown	41324	4	Index	14
284.8233333333333	0	n/a	170895	KeyDown	41324	1	Little	14
285.2966666666667	0	n/a	171179	KeyDown	41324	3	Middle	14
285.5383333333334	0	n/a	171324	KeyDown	41324	2	Ring	14
285.7016666666667	0	n/a	171422	KeyDown	41324	4	Index	14
285.9416666666667	0	n/a	171566	KeyDown	41324	4	Index	14
286.1516666666667	0	n/a	171692	KeyDown	41324	1	Little	14
286.4500000000000	0	n/a	171871	KeyDown	41324	3	Middle	14
286.7166666666667	0	n/a	172031	KeyDown	41324	2	Ring	14
286.8450000000000	0	n/a	172108	KeyDown	41324	4	Index	14
287.1016666666667	0	n/a	172262	KeyDown	41324	4	Index	14
287.4466666666667	0	n/a	172469	KeyDown	41324	1	Little	14
287.9016666666667	0	n/a	172742	KeyDown	41324	3	Middle	14
288.1266666666667	0	n/a	172877	KeyDown	41324	2	Ring	14
288.2933333333334	0	n/a	172977	KeyDown	41324	4	Index	14
288.5633333333333	0	n/a	173139	KeyDown	41324	4	Index	14
288.8183333333333	0	n/a	173292	KeyDown	41324	1	Little	14
289.2833333333334	0	n/a	173571	KeyDown	41324	3	Middle	14
289.5583333333333	0	n/a	173736	KeyDown	41324	2	Ring	14
289.6733333333333	0	n/a	173805	KeyDown	41324	4	Index	14
289.9616666666667	0	n/a	173978	KeyDown	41324	4	Index	14
290.1733333333333	0	n/a	174105	KeyDown	41324	1	Little	14
290.5116666666667	0	n/a	174308	KeyDown	41324	3	Middle	14
290.7883333333334	0	n/a	174474	KeyDown	41324	2	Ring	14
290.9366666666667	0	n/a	174563	KeyDown	41324	4	Index	14
291.3016666666667	0	n/a	174782	KeyDown	41324	4	Index	14
291.6233333333333	0	n/a	174975	KeyDown	41324	1	Little	14
292.0916666666667	0	n/a	175256	KeyDown	41324	3	Middle	14
292.3783333333333	0	n/a	175428	KeyDown	41324	2	Ring	14
292.4583333333334	0	n/a	175476	KeyDown	41324	3	Middle	14
292.5833333333334	0	n/a	175551	StopPractice	41324	n/a	n/a	14
292.5850000000000	0	n/a	175552	StartRest	XXXXX	n/a	n/a	14
302.6183333333333	0	n/a	181572	StopRest	XXXXX	n/a	n/a	14
302.6200000000000	0	UPPT001	181573	StartPractice	41324	n/a	n/a	15
303.6783333333333	0	n/a	182208	KeyDown	41324	4	Index	15
303.8300000000000	0	n/a	182299	KeyDown	41324	1	Little	15
304.0400000000000	0	n/a	182425	KeyDown	41324	3	Middle	15
304.2333333333333	0	n/a	182541	KeyDown	41324	2	Ring	15
304.3966666666667	0	n/a	182639	KeyDown	41324	4	Index	15
304.7433333333333	0	n/a	182847	KeyDown	41324	4	Index	15
304.8683333333333	0	n/a	182922	KeyDown	41324	1	Little	15
305.1550000000000	0	n/a	183094	KeyDown	41324	4	Index	15
305.9766666666667	0	n/a	183587	KeyDown	41324	2	Ring	15
306.1916666666667	0	n/a	183716	KeyDown	41324	4	Index	15
306.5583333333333	0	n/a	183936	KeyDown	41324	4	Index	15
306.6933333333333	0	n/a	184017	KeyDown	41324	1	Little	15
306.9483333333334	0	n/a	184170	KeyDown	41324	3	Middle	15
307.1666666666667	0	n/a	184301	KeyDown	41324	2	Ring	15
307.3616666666667	0	n/a	184418	KeyDown	41324	4	Index	15
307.7216666666667	0	n/a	184634	KeyDown	41324	4	Index	15
307.8850000000000	0	n/a	184732	KeyDown	41324	1	Little	15
308.5216666666667	0	n/a	185114	KeyDown	41324	3	Middle	15
308.7500000000000	0	n/a	185251	KeyDown	41324	2	Ring	15
309.6066666666667	0	n/a	185765	KeyDown	41324	4	Index	15
310.0083333333333	0	n/a	186006	KeyDown	41324	4	Index	15
310.1600000000000	0	n/a	186097	KeyDown	41324	1	Little	15
310.4483333333334	0	n/a	186270	KeyDown	41324	3	Middle	15
310.6683333333334	0	n/a	186402	KeyDown	41324	2	Ring	15
310.8800000000000	0	n/a	186529	KeyDown	41324	4	Index	15
311.2216666666667	0	n/a	186734	KeyDown	41324	4	Index	15
311.3816666666667	0	n/a	186830	KeyDown	41324	1	Little	15
312.5700000000000	0	n/a	187543	KeyDown	41324	3	Middle	15
312.6583333333334	0	n/a	187596	StopPractice	41324	n/a	n/a	15
312.6600000000000	0	n/a	187597	StartRest	XXXXX	n/a	n/a	15
322.6933333333333	0	n/a	193617	StopRest	XXXXX	n/a	n/a	15
322.6950000000000	0	UPPT001	193618	StartPractice	41324	n/a	n/a	16
323.3666666666667	0	n/a	194021	KeyDown	41324	4	Index	16
323.5083333333333	0	n/a	194106	KeyDown	41324	1	Little	16
323.7633333333334	0	n/a	194259	KeyDown	41324	3	Middle	16
324.0683333333333	0	n/a	194442	KeyDown	41324	2	Ring	16
324.2716666666667	0	n/a	194564	KeyDown	41324	4	Index	16
324.5883333333334	0	n/a	194754	KeyDown	41324	4	Index	16
324.8383333333334	0	n/a	194904	KeyDown	41324	1	Little	16
325.1133333333333	0	n/a	195069	KeyDown	41324	3	Middle	16
325.3716666666667	0	n/a	195224	KeyDown	41324	2	Ring	16
325.5266666666667	0	n/a	195317	KeyDown	41324	4	Index	16
325.8333333333334	0	n/a	195501	KeyDown	41324	4	Index	16
325.9916666666667	0	n/a	195596	KeyDown	41324	1	Little	16
326.2533333333333	0	n/a	195753	KeyDown	41324	3	Middle	16
326.4966666666667	0	n/a	195899	KeyDown	41324	2	Ring	16
326.6466666666667	0	n/a	195989	KeyDown	41324	4	Index	16
326.9283333333333	0	n/a	196158	KeyDown	41324	4	Index	16
327.1000000000000	0	n/a	196261	KeyDown	41324	1	Little	16
327.4033333333334	0	n/a	196443	KeyDown	41324	3	Middle	16
327.6583333333334	0	n/a	196596	KeyDown	41324	2	Ring	16
327.8416666666667	0	n/a	196706	KeyDown	41324	4	Index	16
328.1366666666667	0	n/a	196883	KeyDown	41324	4	Index	16
328.3266666666667	0	n/a	196997	KeyDown	41324	1	Little	16
328.5883333333334	0	n/a	197154	KeyDown	41324	3	Middle	16
328.9616666666667	0	n/a	197378	KeyDown	41324	2	Ring	16
329.1583333333334	0	n/a	197496	KeyDown	41324	4	Index	16
329.4716666666667	0	n/a	197684	KeyDown	41324	4	Index	16
329.6433333333334	0	n/a	197787	KeyDown	41324	1	Little	16
330.0016666666667	0	n/a	198002	KeyDown	41324	3	Middle	16
330.2633333333334	0	n/a	198159	KeyDown	41324	2	Ring	16
330.4566666666667	0	n/a	198275	KeyDown	41324	4	Index	16
330.7716666666667	0	n/a	198464	KeyDown	41324	4	Index	16
331.0116666666667	0	n/a	198608	KeyDown	41324	1	Little	16
331.4850000000000	0	n/a	198892	KeyDown	41324	3	Middle	16
331.7566666666667	0	n/a	199055	KeyDown	41324	2	Ring	16
331.9350000000000	0	n/a	199162	KeyDown	41324	3	Middle	16
332.0466666666667	0	n/a	199229	KeyDown	41324	4	Index	16
332.7133333333334	0	n/a	199629	KeyDown	41324	4	Index	16
332.7333333333333	0	n/a	199641	StopPractice	41324	n/a	n/a	16
332.7350000000000	0	n/a	199642	StartRest	XXXXX	n/a	n/a	16
342.7683333333334	0	n/a	205662	StopRest	XXXXX	n/a	n/a	16
342.7700000000000	0	UPPT001	205663	StartPractice	41324	n/a	n/a	17
343.4683333333334	0	n/a	206082	KeyDown	41324	4	Index	17
343.6283333333333	0	n/a	206178	KeyDown	41324	1	Little	17
343.8850000000000	0	n/a	206332	KeyDown	41324	3	Middle	17
344.1016666666667	0	n/a	206462	KeyDown	41324	2	Ring	17
344.2716666666667	0	n/a	206564	KeyDown	41324	4	Index	17
344.5366666666667	0	n/a	206723	KeyDown	41324	4	Index	17
344.6733333333333	0	n/a	206805	KeyDown	41324	1	Little	17
344.9416666666667	0	n/a	206966	KeyDown	41324	3	Middle	17
345.1850000000000	0	n/a	207112	KeyDown	41324	2	Ring	17
345.3383333333334	0	n/a	207204	KeyDown	41324	4	Index	17
345.6233333333333	0	n/a	207375	KeyDown	41324	4	Index	17
345.7933333333334	0	n/a	207477	KeyDown	41324	1	Little	17
346.0316666666667	0	n/a	207620	KeyDown	41324	3	Middle	17
346.2533333333333	0	n/a	207753	KeyDown	41324	2	Ring	17
346.4116666666667	0	n/a	207848	KeyDown	41324	4	Index	17
346.6866666666667	0	n/a	208013	KeyDown	41324	4	Index	17
346.8116666666667	0	n/a	208088	KeyDown	41324	1	Little	17
347.0666666666667	0	n/a	208241	KeyDown	41324	3	Middle	17
347.3133333333333	0	n/a	208389	KeyDown	41324	2	Ring	17
347.4433333333333	0	n/a	208467	KeyDown	41324	4	Index	17
347.7450000000000	0	n/a	208648	KeyDown	41324	4	Index	17
347.8750000000000	0	n/a	208726	KeyDown	41324	1	Little	17
348.2483333333333	0	n/a	208950	KeyDown	41324	3	Middle	17
348.5066666666667	0	n/a	209105	KeyDown	41324	2	Ring	17
348.6416666666667	0	n/a	209186	KeyDown	41324	4	Index	17
348.9333333333333	0	n/a	209361	KeyDown	41324	4	Index	17
349.0783333333334	0	n/a	209448	KeyDown	41324	1	Little	17
349.3433333333334	0	n/a	209607	KeyDown	41324	3	Middle	17
349.5766666666667	0	n/a	209747	KeyDown	41324	2	Ring	17
349.7316666666667	0	n/a	209840	KeyDown	41324	4	Index	17
350.0116666666667	0	n/a	210008	KeyDown	41324	4	Index	17
350.2583333333334	0	n/a	210156	KeyDown	41324	1	Little	17
351.7016666666667	0	n/a	211022	KeyDown	41324	4	Index	17
352.4266666666667	0	n/a	211457	KeyDown	41324	2	Ring	17
352.6783333333333	0	n/a	211608	KeyDown	41324	4	Index	17
352.8083333333333	0	n/a	211686	StopPractice	41324	n/a	n/a	17
352.8100000000000	0	n/a	211687	StartRest	XXXXX	n/a	n/a	17
362.8433333333334	0	n/a	217707	StopRest	XXXXX	n/a	n/a	17
362.8450000000000	0	UPPT001	217708	StartPractice	41324	n/a	n/a	18
363.5666666666667	0	n/a	218141	KeyDown	41324	4	Index	18
363.7416666666667	0	n/a	218246	KeyDown	41324	1	Little	18
364.0416666666667	0	n/a	218426	KeyDown	41324	3	Middle	18
364.3650000000000	0	n/a	218620	KeyDown	41324	2	Ring	18
364.5183333333334	0	n/a	218712	KeyDown	41324	4	Index	18
364.8083333333333	0	n/a	218886	KeyDown	41324	4	Index	18
364.9716666666667	0	n/a	218984	KeyDown	41324	1	Little	18
365.2683333333334	0	n/a	219162	KeyDown	41324	3	Middle	18
365.5216666666667	0	n/a	219314	KeyDown	41324	2	Ring	18
365.7083333333334	0	n/a	219426	KeyDown	41324	4	Index	18
365.9716666666667	0	n/a	219584	KeyDown	41324	4	Index	18
366.1166666666667	0	n/a	219671	KeyDown	41324	1	Little	18
366.4166666666667	0	n/a	219851	KeyDown	41324	3	Middle	18
366.7066666666667	0	n/a	220025	KeyDown	41324	2	Ring	18
366.8466666666667	0	n/a	220109	KeyDown	41324	4	Index	18
367.1566666666667	0	n/a	220295	KeyDown	41324	4	Index	18
367.3166666666667	0	n/a	220391	KeyDown	41324	1	Little	18
367.6066666666667	0	n/a	220565	KeyDown	41324	3	Middle	18
367.8666666666667	0	n/a	220721	KeyDown	41324	2	Ring	18
368.0066666666667	0	n/a	220805	KeyDown	41324	4	Index	18
368.2983333333333	0	n/a	220980	KeyDown	41324	4	Index	18
368.5083333333334	0	n/a	221106	KeyDown	41324	1	Little	18
368.8116666666667	0	n/a	221288	KeyDown	41324	3	Middle	18
369.0683333333334	0	n/a	221442	KeyDown	41324	2	Ring	18
369.2466666666667	0	n/a	221549	KeyDown	41324	4	Index	18
369.5266666666667	0	n/a	221717	KeyDown	41324	4	Index	18
369.6633333333334	0	n/a	221799	KeyDown	41324	1	Little	18
369.9833333333333	0	n/a	221991	KeyDown	41324	3	Middle	18
370.2166666666667	0	n/a	222131	KeyDown	41324	2	Ring	18
370.3800000000000	0	n/a	222229	KeyDown	41324	4	Index	18
370.6883333333333	0	n/a	222414	KeyDown	41324	4	Index	18
370.9566666666667	0	n/a	222575	KeyDown	41324	2	Ring	18
371.8516666666667	0	n/a	223112	KeyDown	41324	3	Middle	18
372.3366666666667	0	n/a	223403	KeyDown	41324	2	Ring	18
372.4733333333334	0	n/a	223485	KeyDown	41324	4	Index	18
372.7766666666667	0	n/a	223667	KeyDown	41324	4	Index	18
372.8833333333334	0	n/a	223731	StopPractice	41324	n/a	n/a	18
372.8850000000000	0	n/a	223732	StartRest	XXXXX	n/a	n/a	18
382.9166666666667	0	n/a	229751	StopRest	XXXXX	n/a	n/a	18
382.9183333333334	0	UPPT001	229752	StartPractice	41324	n/a	n/a	19
383.6000000000000	0	n/a	230161	KeyDown	41324	4	Index	19
383.7800000000000	0	n/a	230269	KeyDown	41324	1	Little	19
384.0216666666667	0	n/a	230414	KeyDown	41324	3	Middle	19
384.2566666666667	0	n/a	230555	KeyDown	41324	2	Ring	19
384.3966666666667	0	n/a	230639	KeyDown	41324	4	Index	19
384.6866666666667	0	n/a	230813	KeyDown	41324	4	Index	19
384.8200000000001	0	n/a	230893	KeyDown	41324	1	Little	19
385.0916666666667	0	n/a	231056	KeyDown	41324	3	Middle	19
385.3650000000000	0	n/a	231220	KeyDown	41324	2	Ring	19
385.5100000000000	0	n/a	231307	KeyDown	41324	4	Index	19
385.8166666666667	0	n/a	231491	KeyDown	41324	4	Index	19
385.9350000000000	0	n/a	231562	KeyDown	41324	1	Little	19
386.3350000000000	0	n/a	231802	KeyDown	41324	3	Middle	19
386.6250000000000	0	n/a	231976	KeyDown	41324	2	Ring	19
386.7950000000000	0	n/a	232078	KeyDown	41324	4	Index	19
387.0750000000000	0	n/a	232246	KeyDown	41324	4	Index	19
387.3183333333334	0	n/a	232392	KeyDown	41324	1	Little	19
389.3450000000000	0	n/a	233608	KeyDown	41324	3	Middle	19
389.7466666666667	0	n/a	233849	KeyDown	41324	2	Ring	19
389.9183333333334	0	n/a	233952	KeyDown	41324	4	Index	19
390.1866666666667	0	n/a	234113	KeyDown	41324	4	Index	19
390.3383333333334	0	n/a	234204	KeyDown	41324	1	Little	19
390.6300000000001	0	n/a	234379	KeyDown	41324	3	Middle	19
390.9050000000000	0	n/a	234544	KeyDown	41324	2	Ring	19
391.0700000000001	0	n/a	234643	KeyDown	41324	4	Index	19
391.3666666666667	0	n/a	234821	KeyDown	41324	4	Index	19
391.5966666666667	0	n/a	234959	KeyDown	41324	1	Little	19
391.8333333333334	0	n/a	235101	KeyDown	41324	3	Middle	19
392.1450000000000	0	n/a	235288	KeyDown	41324	2	Ring	19
392.3166666666667	0	n/a	235391	KeyDown	41324	4	Index	19
392.6000000000000	0	n/a	235561	KeyDown	41324	4	Index	19
392.8250000000000	0	n/a	235696	KeyDown	41324	1	Little	19
392.9566666666667	0	n/a	235775	StopPractice	41324	n/a	n/a	19
392.9583333333334	0	n/a	235776	StartRest	XXXXX	n/a	n/a	19
402.9916666666667	0	n/a	241796	StopRest	XXXXX	n/a	n/a	19
402.9933333333333	0	UPPT001	241797	StartPractice	41324	n/a	n/a	20
403.6950000000001	0	n/a	242218	KeyDown	41324	4	Index	20
403.8350000000000	0	n/a	242302	KeyDown	41324	1	Little	20
404.1416666666667	0	n/a	242486	KeyDown	41324	3	Middle	20
404.4183333333334	0	n/a	242652	KeyDown	41324	2	Ring	20
404.5550000000000	0	n/a	242734	KeyDown	41324	4	Index	20
404.8566666666667	0	n/a	242915	KeyDown	41324	4	Index	20
405.0100000000000	0	n/a	243007	KeyDown	41324	1	Little	20
405.2866666666667	0	n/a	243173	KeyDown	41324	3	Middle	20
405.5366666666667	0	n/a	243323	KeyDown	41324	2	Ring	20
405.6916666666667	0	n/a	243416	KeyDown	41324	4	Index	20
405.9683333333334	0	n/a	243582	KeyDown	41324	4	Index	20
406.0966666666667	0	n/a	243659	KeyDown	41324	1	Little	20
406.4200000000000	0	n/a	243853	KeyDown	41324	3	Middle	20
406.7166666666667	0	n/a	244031	KeyDown	41324	2	Ring	20
406.8866666666667	0	n/a	244133	KeyDown	41324	4	Index	20
411.6750000000000	0	n/a	247006	KeyDown	41324	3	Middle	20
412.8250000000000	0	n/a	247696	KeyDown	41324	2	Ring	20
413.0316666666667	0	n/a	247820	StopPractice	41324	n/a	n/a	20
413.0333333333334	0	n/a	247821	StartRest	XXXXX	n/a	n/a	20
423.0666666666667	0	n/a	253841	StopRest	XXXXX	n/a	n/a	20
423.0683333333334	0	UPPT001	253842	StartPractice	41324	n/a	n/a	21
423.7550000000001	0	n/a	254254	KeyDown	41324	4	Index	21
423.9066666666667	0	n/a	254345	KeyDown	41324	1	Little	21
424.1716666666667	0	n/a	254504	KeyDown	41324	3	Middle	21
424.4416666666667	0	n/a	254666	KeyDown	41324	2	Ring	21
424.5966666666667	0	n/a	254759	KeyDown	41324	4	Index	21
424.8633333333333	0	n/a	254919	KeyDown	41324	4	Index	21
424.9750000000000	0	n/a	254986	KeyDown	41324	1	Little	21
425.2366666666667	0	n/a	255143	KeyDown	41324	3	Middle	21
425.5050000000001	0	n/a	255304	KeyDown	41324	2	Ring	21
425.6616666666667	0	n/a	255398	KeyDown	41324	4	Index	21
425.9316666666667	0	n/a	255560	KeyDown	41324	4	Index	21
426.0416666666667	0	n/a	255626	KeyDown	41324	1	Little	21
426.3000000000000	0	n/a	255781	KeyDown	41324	3	Middle	21
426.5916666666667	0	n/a	255956	KeyDown	41324	2	Ring	21
426.7266666666667	0	n/a	256037	KeyDown	41324	4	Index	21
427.0216666666667	0	n/a	256214	KeyDown	41324	4	Index	21
427.1683333333334	0	n/a	256302	KeyDown	41324	1	Little	21
427.4766666666667	0	n/a	256487	KeyDown	41324	4	Index	21
428.3533333333334	0	n/a	257013	KeyDown	41324	2	Ring	21
428.5316666666667	0	n/a	257120	KeyDown	41324	4	Index	21
428.8683333333333	0	n/a	257322	KeyDown	41324	4	Index	21
429.0550000000000	0	n/a	257434	KeyDown	41324	1	Little	21
429.3466666666667	0	n/a	257609	KeyDown	41324	3	Middle	21
429.6033333333334	0	n/a	257763	KeyDown	41324	2	Ring	21
429.7450000000000	0	n/a	257848	KeyDown	41324	4	Index	21
430.0566666666667	0	n/a	258035	KeyDown	41324	4	Index	21
430.2416666666667	0	n/a	258146	KeyDown	41324	1	Little	21
430.6716666666667	0	n/a	258404	KeyDown	41324	3	Middle	21
430.9550000000000	0	n/a	258574	KeyDown	41324	2	Ring	21
431.0900000000000	0	n/a	258655	KeyDown	41324	4	Index	21
431.3816666666667	0	n/a	258830	KeyDown	41324	4	Index	21
431.5866666666667	0	n/a	258953	KeyDown	41324	1	Little	21
431.9800000000000	0	n/a	259189	KeyDown	41324	3	Middle	21
432.2516666666667	0	n/a	259352	KeyDown	41324	2	Ring	21
432.3766666666667	0	n/a	259427	KeyDown	41324	4	Index	21
432.7100000000000	0	n/a	259627	KeyDown	41324	4	Index	21
432.8766666666667	0	n/a	259727	KeyDown	41324	1	Little	21
433.1066666666667	0	n/a	259865	StopPractice	41324	n/a	n/a	21
433.1083333333333	0	n/a	259866	StartRest	XXXXX	n/a	n/a	21
443.1416666666667	0	n/a	265886	StopRest	XXXXX	n/a	n/a	21
443.1433333333334	0	UPPT001	265887	StartPractice	41324	n/a	n/a	22
444.4566666666667	0	n/a	266675	KeyDown	41324	4	Index	22
444.5866666666667	0	n/a	266753	KeyDown	41324	1	Little	22
444.8400000000000	0	n/a	266905	KeyDown	41324	3	Middle	22
445.0550000000000	0	n/a	267034	KeyDown	41324	2	Ring	22
445.2116666666667	0	n/a	267128	KeyDown	41324	4	Index	22
445.4516666666667	0	n/a	267272	KeyDown	41324	4	Index	22
445.5650000000001	0	n/a	267340	KeyDown	41324	1	Little	22
445.8133333333334	0	n/a	267489	KeyDown	41324	3	Middle	22
446.0500000000000	0	n/a	267631	KeyDown	41324	2	Ring	22
446.2000000000000	0	n/a	267721	KeyDown	41324	4	Index	22
446.4650000000000	0	n/a	267880	KeyDown	41324	4	Index	22
446.5866666666667	0	n/a	267953	KeyDown	41324	1	Little	22
446.8283333333334	0	n/a	268098	KeyDown	41324	3	Middle	22
447.0650000000001	0	n/a	268240	KeyDown	41324	2	Ring	22
447.2033333333334	0	n/a	268323	KeyDown	41324	4	Index	22
447.4566666666667	0	n/a	268475	KeyDown	41324	4	Index	22
447.5916666666667	0	n/a	268556	KeyDown	41324	1	Little	22
447.8600000000000	0	n/a	268717	KeyDown	41324	3	Middle	22
448.1300000000001	0	n/a	268879	KeyDown	41324	2	Ring	22
448.3116666666667	0	n/a	268988	KeyDown	41324	4	Index	22
448.6300000000001	0	n/a	269179	KeyDown	41324	4	Index	22
448.7900000000000	0	n/a	269275	KeyDown	41324	1	Little	22
449.1216666666667	0	n/a	269474	KeyDown	41324	2	Ring	22
450.1100000000000	0	n/a	270067	KeyDown	41324	2	Ring	22
450.3333333333334	0	n/a	270201	KeyDown	41324	4	Index	22
450.5983333333334	0	n/a	270360	KeyDown	41324	4	Index	22
450.7316666666667	0	n/a	270440	KeyDown	41324	1	Little	22
451.0616666666667	0	n/a	270638	KeyDown	41324	3	Middle	22
451.3866666666667	0	n/a	270833	KeyDown	41324	2	Ring	22
451.5033333333334	0	n/a	270903	KeyDown	41324	3	Middle	22
452.4233333333333	0	n/a	271455	KeyDown	41324	4	Index	22
453.1350000000000	0	n/a	271882	KeyDown	41324	1	Little	22
453.1816666666667	0	n/a	271910	StopPractice	41324	n/a	n/a	22
453.1833333333333	0	n/a	271911	StartRest	XXXXX	n/a	n/a	22
463.2166666666667	0	n/a	277931	StopRest	XXXXX	n/a	n/a	22
463.2183333333334	0	UPPT001	277932	StartPractice	41324	n/a	n/a	23
463.7833333333334	0	n/a	278271	KeyDown	41324	4	Index	23
463.9166666666667	0	n/a	278351	KeyDown	41324	1	Little	23
464.2400000000000	0	n/a	278545	KeyDown	41324	3	Middle	23
464.5850000000000	0	n/a	278752	KeyDown	41324	2	Ring	23
464.7050000000000	0	n/a	278824	KeyDown	41324	4	Index	23
464.9966666666667	0	n/a	278999	KeyDown	41324	4	Index	23
465.1416666666667	0	n/a	279086	KeyDown	41324	1	Little	23
465.4433333333334	0	n/a	279267	KeyDown	41324	3	Middle	23
466.2166666666667	0	n/a	279731	KeyDown	41324	2	Ring	23
466.4183333333334	0	n/a	279852	KeyDown	41324	4	Index	23
466.7400000000000	0	n/a	280045	KeyDown	41324	4	Index	23
466.8866666666667	0	n/a	280133	KeyDown	41324	1	Little	23
467.4700000000000	0	n/a	280483	KeyDown	41324	3	Middle	23
467.8466666666667	0	n/a	280709	KeyDown	41324	2	Ring	23
468.0000000000001	0	n/a	280801	KeyDown	41324	4	Index	23
468.2900000000000	0	n/a	280975	KeyDown	41324	4	Index	23
468.4400000000001	0	n/a	281065	KeyDown	41324	1	Little	23
468.7166666666667	0	n/a	281231	KeyDown	41324	3	Middle	23
468.9450000000001	0	n/a	281368	KeyDown	41324	2	Ring	23
469.1050000000000	0	n/a	281464	KeyDown	41324	4	Index	23
469.4066666666667	0	n/a	281645	KeyDown	41324	4	Index	23
469.5450000000000	0	n/a	281728	KeyDown	41324	1	Little	23
469.9816666666667	0	n/a	281990	KeyDown	41324	3	Middle	23
470.2916666666667	0	n/a	282176	KeyDown	41324	2	Ring	23
470.4716666666667	0	n/a	282284	KeyDown	41324	4	Index	23
470.7350000000000	0	n/a	282442	KeyDown	41324	4	Index	23
470.8816666666667	0	n/a	282530	KeyDown	41324	1	Little	23
471.1516666666667	0	n/a	282692	KeyDown	41324	3	Middle	23
471.4266666666667	0	n/a	282857	KeyDown	41324	2	Ring	23
471.5883333333334	0	n/a	282954	KeyDown	41324	4	Index	23
471.8966666666667	0	n/a	283139	KeyDown	41324	4	Index	23
472.0900000000000	0	n/a	283255	KeyDown	41324	1	Little	23
472.4600000000000	0	n/a	283477	KeyDown	41324	3	Middle	23
472.7216666666667	0	n/a	283634	KeyDown	41324	2	Ring	23
472.8866666666667	0	n/a	283733	KeyDown	41324	4	Index	23
473.1666666666667	0	n/a	283901	KeyDown	41324	4	Index	23
473.2566666666667	0	n/a	283955	StopPractice	41324	n/a	n/a	23
473.2583333333334	0	n/a	283956	StartRest	XXXXX	n/a	n/a	23
483.2916666666667	0	n/a	289976	StopRest	XXXXX	n/a	n/a	23
483.2933333333334	0	UPPT001	289977	StartPractice	41324	n/a	n/a	24
483.8500000000000	0	n/a	290311	KeyDown	41324	4	Index	24
484.0200000000000	0	n/a	290413	KeyDown	41324	1	Little	24
484.3433333333334	0	n/a	290607	KeyDown	41324	3	Middle	24
484.6750000000000	0	n/a	290806	KeyDown	41324	2	Ring	24
484.8716666666667	0	n/a	290924	KeyDown	41324	4	Index	24
485.2016666666667	0	n/a	291122	KeyDown	41324	4	Index	24
485.2933333333334	0	n/a	291177	KeyDown	41324	1	Little	24
485.5683333333334	0	n/a	291342	KeyDown	41324	3	Middle	24
485.7950000000000	0	n/a	291478	KeyDown	41324	2	Ring	24
485.9550000000000	0	n/a	291574	KeyDown	41324	4	Index	24
486.2283333333334	0	n/a	291738	KeyDown	41324	4	Index	24
486.3716666666667	0	n/a	291824	KeyDown	41324	1	Little	24
486.6516666666667	0	n/a	291992	KeyDown	41324	3	Middle	24
486.9450000000001	0	n/a	292168	KeyDown	41324	2	Ring	24
487.1150000000000	0	n/a	292270	KeyDown	41324	4	Index	24
487.3766666666667	0	n/a	292427	KeyDown	41324	4	Index	24
487.5750000000000	0	n/a	292546	KeyDown	41324	1	Little	24
488.0000000000001	0	n/a	292801	KeyDown	41324	3	Middle	24
488.3066666666667	0	n/a	292985	KeyDown	41324	2	Ring	24
488.4350000000001	0	n/a	293062	KeyDown	41324	4	Index	24
488.7383333333333	0	n/a	293244	KeyDown	41324	4	Index	24
488.8650000000000	0	n/a	293320	KeyDown	41324	1	Little	24
489.1966666666667	0	n/a	293519	KeyDown	41324	3	Middle	24
489.5733333333334	0	n/a	293745	KeyDown	41324	2	Ring	24
489.6950000000001	0	n/a	293818	KeyDown	41324	4	Index	24
490.0016666666667	0	n/a	294002	KeyDown	41324	4	Index	24
490.1516666666667	0	n/a	294092	KeyDown	41324	1	Little	24
490.3783333333334	0	n/a	294228	KeyDown	41324	3	Middle	24
490.7916666666667	0	n/a	294476	KeyDown	41324	2	Ring	24
491.1800000000000	0	n/a	294709	KeyDown	41324	4	Index	24
491.5500000000000	0	n/a	294931	KeyDown	41324	4	Index	24
492.3350000000000	0	n/a	295402	KeyDown	41324	1	Little	24
492.6466666666667	0	n/a	295589	KeyDown	41324	3	Middle	24
492.8983333333334	0	n/a	295740	KeyDown	41324	2	Ring	24
493.0950000000000	0	n/a	295858	KeyDown	41324	4	Index	24
493.3316666666667	0	n/a	296000	StopPractice	41324	n/a	n/a	24
493.3333333333334	0	n/a	296001	StartRest	XXXXX	n/a	n/a	24
503.3666666666667	0	n/a	302021	StopRest	XXXXX	n/a	n/a	24
503.3683333333333	0	UPPT001	302022	StartPractice	41324	n/a	n/a	25
503.9683333333334	0	n/a	302382	KeyDown	41324	4	Index	25
504.1333333333334	0	n/a	302481	KeyDown	41324	1	Little	25
504.4166666666667	0	n/a	302651	KeyDown	41324	3	Middle	25
504.7116666666667	0	n/a	302828	KeyDown	41324	2	Ring	25
504.8933333333334	0	n/a	302937	KeyDown	41324	4	Index	25
505.1950000000001	0	n/a	303118	KeyDown	41324	4	Index	25
505.3200000000001	0	n/a	303193	KeyDown	41324	1	Little	25
505.5583333333334	0	n/a	303336	KeyDown	41324	3	Middle	25
505.7800000000000	0	n/a	303469	KeyDown	41324	2	Ring	25
505.9316666666667	0	n/a	303560	KeyDown	41324	4	Index	25
506.1816666666667	0	n/a	303710	KeyDown	41324	4	Index	25
506.3316666666667	0	n/a	303800	KeyDown	41324	1	Little	25
506.5450000000000	0	n/a	303928	KeyDown	41324	3	Middle	25
506.7700000000000	0	n/a	304063	KeyDown	41324	2	Ring	25
506.9216666666667	0	n/a	304154	KeyDown	41324	4	Index	25
507.1650000000000	0	n/a	304300	KeyDown	41324	4	Index	25
507.3000000000000	0	n/a	304381	KeyDown	41324	1	Little	25
507.5333333333334	0	n/a	304521	KeyDown	41324	3	Middle	25
507.7566666666667	0	n/a	304655	KeyDown	41324	2	Ring	25
507.9116666666667	0	n/a	304748	KeyDown	41324	4	Index	25
508.1666666666667	0	n/a	304901	KeyDown	41324	4	Index	25
508.3850000000000	0	n/a	305032	KeyDown	41324	1	Little	25
508.7416666666667	0	n/a	305246	KeyDown	41324	3	Middle	25
509.1250000000001	0	n/a	305476	KeyDown	41324	2	Ring	25
509.5133333333334	0	n/a	305709	KeyDown	41324	4	Index	25
509.8316666666667	0	n/a	305900	KeyDown	41324	4	Index	25
510.4933333333333	0	n/a	306297	KeyDown	41324	2	Ring	25
511.8700000000000	0	n/a	307123	KeyDown	41324	3	Middle	25
512.1016666666667	0	n/a	307262	KeyDown	41324	2	Ring	25
512.4216666666667	0	n/a	307454	KeyDown	41324	4	Index	25
512.8283333333334	0	n/a	307698	KeyDown	41324	4	Index	25
512.9516666666667	0	n/a	307772	KeyDown	41324	1	Little	25
513.4066666666668	0	n/a	308045	StopPractice	41324	n/a	n/a	25
513.4083333333334	0	n/a	308046	StartRest	XXXXX	n/a	n/a	25
523.4416666666667	0	n/a	314066	StopRest	XXXXX	n/a	n/a	25
523.4433333333334	0	UPPT001	314067	StartPractice	41324	n/a	n/a	26
524.3016666666667	0	n/a	314582	KeyDown	41324	4	Index	26
524.4500000000000	0	n/a	314671	KeyDown	41324	1	Little	26
524.7016666666667	0	n/a	314822	KeyDown	41324	3	Middle	26
524.9266666666667	0	n/a	314957	KeyDown	41324	2	Ring	26
525.0816666666667	0	n/a	315050	KeyDown	41324	4	Index	26
525.3500000000000	0	n/a	315211	KeyDown	41324	4	Index	26
525.4900000000000	0	n/a	315295	KeyDown	41324	1	Little	26
526.1300000000000	0	n/a	315679	KeyDown	41324	3	Middle	26
526.4500000000000	0	n/a	315871	KeyDown	41324	2	Ring	26
526.6116666666667	0	n/a	315968	KeyDown	41324	4	Index	26
526.8900000000000	0	n/a	316135	KeyDown	41324	4	Index	26
527.0000000000000	0	n/a	316201	KeyDown	41324	1	Little	26
527.2750000000000	0	n/a	316366	KeyDown	41324	3	Middle	26
527.5450000000001	0	n/a	316528	KeyDown	41324	2	Ring	26
527.6816666666667	0	n/a	316610	KeyDown	41324	4	Index	26
527.9583333333334	0	n/a	316776	KeyDown	41324	4	Index	26
528.1050000000000	0	n/a	316864	KeyDown	41324	1	Little	26
528.3800000000000	0	n/a	317029	KeyDown	41324	3	Middle	26
528.6683333333334	0	n/a	317202	KeyDown	41324	2	Ring	26
528.7850000000001	0	n/a	317272	KeyDown	41324	4	Index	26
529.0666666666667	0	n/a	317441	KeyDown	41324	4	Index	26
529.1966666666667	0	n/a	317519	KeyDown	41324	1	Little	26
529.4316666666667	0	n/a	317660	KeyDown	41324	3	Middle	26
529.7350000000000	0	n/a	317842	KeyDown	41324	2	Ring	26
529.8850000000000	0	n/a	317932	KeyDown	41324	4	Index	26
530.1766666666667	0	n/a	318107	KeyDown	41324	4	Index	26
530.3600000000000	0	n/a	318217	KeyDown	41324	1	Little	26
530.5866666666667	0	n/a	318353	KeyDown	41324	3	Middle	26
530.8700000000000	0	n/a	318523	KeyDown	41324	2	Ring	26
531.0116666666667	0	n/a	318608	KeyDown	41324	3	Middle	26
531.7916666666667	0	n/a	319076	KeyDown	41324	4	Index	26
531.9366666666667	0	n/a	319163	KeyDown	41324	1	Little	26
532.5833333333334	0	n/a	319551	KeyDown	41324	3	Middle	26
532.8633333333333	0	n/a	319719	KeyDown	41324	2	Ring	26
533.0216666666666	0	n/a	319814	KeyDown	41324	4	Index	26
533.3150000000001	0	n/a	319990	KeyDown	41324	4	Index	26
533.4816666666667	0	n/a	320090	StopPractice	41324	n/a	n/a	26
533.4833333333333	0	n/a	320091	StartRest	XXXXX	n/a	n/a	26
543.5166666666667	0	n/a	326111	StopRest	XXXXX	n/a	n/a	26
543.5183333333333	0	UPPT001	326112	StartPractice	41324	n/a	n/a	27
544.1100000000000	0	n/a	326467	KeyDown	41324	4	Index	27
544.2366666666667	0	n/a	326543	KeyDown	41324	1	Little	27
544.4933333333333	0	n/a	326697	KeyDown	41324	3	Middle	27
544.7450000000000	0	n/a	326848	KeyDown	41324	2	Ring	27
544.8750000000000	0	n/a	326926	KeyDown	41324	4	Index	27
545.1616666666667	0	n/a	327098	KeyDown	41324	4	Index	27
545.2800000000001	0	n/a	327169	KeyDown	41324	1	Little	27
545.5333333333334	0	n/a	327321	KeyDown	41324	3	Middle	27
545.8300000000000	0	n/a	327499	KeyDown	41324	2	Ring	27
545.9900000000000	0	n/a	327595	KeyDown	41324	4	Index	27
546.2616666666667	0	n/a	327758	KeyDown	41324	4	Index	27
546.3833333333333	0	n/a	327831	KeyDown	41324	1	Little	27
546.6183333333333	0	n/a	327972	KeyDown	41324	3	Middle	27
546.8816666666667	0	n/a	328130	KeyDown	41324	2	Ring	27
547.0183333333333	0	n/a	328212	KeyDown	41324	4	Index	27
547.2983333333334	0	n/a	328380	KeyDown	41324	4	Index	27
547.4266666666667	0	n/a	328457	KeyDown	41324	1	Little	27
547.6666666666667	0	n/a	328601	KeyDown	41324	3	Middle	27
547.9050000000001	0	n/a	328744	KeyDown	41324	2	Ring	27
548.0450000000001	0	n/a	328828	KeyDown	41324	4	Index	27
548.3066666666667	0	n/a	328985	KeyDown	41324	4	Index	27
548.4766666666667	0	n/a	329087	KeyDown	41324	1	Little	27
548.8000000000001	0	n/a	329281	KeyDown	41324	3	Middle	27
549.3350000000000	0	n/a	329602	KeyDown	41324	2	Ring	27
549.5066666666667	0	n/a	329705	KeyDown	41324	4	Index	27
549.8183333333334	0	n/a	329892	KeyDown	41324	4	Index	27
549.9416666666667	0	n/a	329966	KeyDown	41324	1	Little	27
550.2116666666667	0	n/a	330128	KeyDown	41324	3	Middle	27
550.4683333333334	0	n/a	330282	KeyDown	41324	2	Ring	27
550.6500000000001	0	n/a	330391	KeyDown	41324	4	Index	27
550.9416666666667	0	n/a	330566	KeyDown	41324	4	Index	27
551.1000000000000	0	n/a	330661	KeyDown	41324	1	Little	27
551.3650000000000	0	n/a	330820	KeyDown	41324	3	Middle	27
551.6683333333334	0	n/a	331002	KeyDown	41324	2	Ring	27
551.7966666666667	0	n/a	331079	KeyDown	41324	4	Index	27
552.0716666666667	0	n/a	331244	KeyDown	41324	4	Index	27
552.2150000000000	0	n/a	331330	KeyDown	41324	1	Little	27
552.7716666666666	0	n/a	331664	KeyDown	41324	3	Middle	27
553.1333333333333	0	n/a	331881	KeyDown	41324	2	Ring	27
553.3400000000000	0	n/a	332005	KeyDown	41324	4	Index	27
553.5566666666667	0	n/a	332135	StopPractice	41324	n/a	n/a	27
553.5583333333334	0	n/a	332136	StartRest	XXXXX	n/a	n/a	27
563.5916666666667	0	n/a	338156	StopRest	XXXXX	n/a	n/a	27
563.5933333333334	0	UPPT001	338157	StartPractice	41324	n/a	n/a	28
564.3100000000001	0	n/a	338587	KeyDown	41324	4	Index	28
564.4416666666667	0	n/a	338666	KeyDown	41324	1	Little	28
564.7000000000000	0	n/a	338821	KeyDown	41324	3	Middle	28
564.9616666666667	0	n/a	338978	KeyDown	41324	2	Ring	28
565.0733333333334	0	n/a	339045	KeyDown	41324	4	Index	28
565.3766666666667	0	n/a	339227	KeyDown	41324	4	Index	28
565.4766666666667	0	n/a	339287	KeyDown	41324	1	Little	28
565.7050000000000	0	n/a	339424	KeyDown	41324	3	Middle	28
565.9783333333334	0	n/a	339588	KeyDown	41324	2	Ring	28
566.0950000000000	0	n/a	339658	KeyDown	41324	4	Index	28
566.3650000000000	0	n/a	339820	KeyDown	41324	4	Index	28
566.4750000000000	0	n/a	339886	KeyDown	41324	1	Little	28
566.7200000000000	0	n/a	340033	KeyDown	41324	3	Middle	28
566.9750000000000	0	n/a	340186	KeyDown	41324	2	Ring	28
567.1016666666667	0	n/a	340262	KeyDown	41324	4	Index	28
567.3533333333334	0	n/a	340413	KeyDown	41324	4	Index	28
567.4900000000000	0	n/a	340495	KeyDown	41324	1	Little	28
567.7816666666668	0	n/a	340670	KeyDown	41324	3	Middle	28
568.0850000000000	0	n/a	340852	KeyDown	41324	2	Ring	28
568.2400000000000	0	n/a	340945	KeyDown	41324	4	Index	28
568.5483333333334	0	n/a	341130	KeyDown	41324	4	Index	28
568.6933333333334	0	n/a	341217	KeyDown	41324	1	Little	28
569.1016666666667	0	n/a	341462	KeyDown	41324	3	Middle	28
569.3350000000000	0	n/a	341602	KeyDown	41324	2	Ring	28
569.4516666666667	0	n/a	341672	KeyDown	41324	4	Index	28
569.7666666666667	0	n/a	341861	KeyDown	41324	4	Index	28
569.9166666666667	0	n/a	341951	KeyDown	41324	1	Little	28
570.4883333333333	0	n/a	342294	KeyDown	41324	3	Middle	28
570.8550000000000	0	n/a	342514	KeyDown	41324	2	Ring	28
570.9700000000000	0	n/a	342583	KeyDown	41324	4	Index	28
571.2916666666667	0	n/a	342776	KeyDown	41324	4	Index	28
571.4400000000001	0	n/a	342865	KeyDown	41324	1	Little	28
571.7833333333334	0	n/a	343071	KeyDown	41324	3	Middle	28
572.0850000000000	0	n/a	343252	KeyDown	41324	2	Ring	28
572.1900000000001	0	n/a	343315	KeyDown	41324	4	Index	28
572.5100000000000	0	n/a	343507	KeyDown	41324	4	Index	28
572.6583333333334	0	n/a	343596	KeyDown	41324	1	Little	28
572.9666666666667	0	n/a	343781	KeyDown	41324	3	Middle	28
573.2116666666667	0	n/a	343928	KeyDown	41324	2	Ring	28
573.3466666666667	0	n/a	344009	KeyDown	41324	4	Index	28
573.6316666666667	0	n/a	344180	StopPractice	41324	n/a	n/a	28
573.6333333333333	0	n/a	344181	StartRest	XXXXX	n/a	n/a	28
583.6650000000001	0	n/a	350200	StopRest	XXXXX	n/a	n/a	28
583.6666666666667	0	UPPT001	350201	StartPractice	41324	n/a	n/a	29
584.2083333333334	0	n/a	350526	KeyDown	41324	4	Index	29
584.3500000000000	0	n/a	350611	KeyDown	41324	1	Little	29
584.5766666666667	0	n/a	350747	KeyDown	41324	3	Middle	29
584.8150000000001	0	n/a	350890	KeyDown	41324	2	Ring	29
584.9500000000000	0	n/a	350971	KeyDown	41324	4	Index	29
585.2183333333334	0	n/a	351132	KeyDown	41324	4	Index	29
585.3600000000000	0	n/a	351217	KeyDown	41324	1	Little	29
585.5900000000000	0	n/a	351355	KeyDown	41324	3	Middle	29
585.8666666666667	0	n/a	351521	KeyDown	41324	2	Ring	29
585.9883333333333	0	n/a	351594	KeyDown	41324	4	Index	29
586.2683333333333	0	n/a	351762	KeyDown	41324	4	Index	29
586.4016666666668	0	n/a	351842	KeyDown	41324	1	Little	29
586.6450000000000	0	n/a	351988	KeyDown	41324	3	Middle	29
586.9083333333334	0	n/a	352146	KeyDown	41324	2	Ring	29
587.0633333333334	0	n/a	352239	KeyDown	41324	4	Index	29
587.3233333333334	0	n/a	352395	KeyDown	41324	4	Index	29
587.7783333333334	0	n/a	352668	KeyDown	41324	1	Little	29
588.1316666666667	0	n/a	352880	KeyDown	41324	3	Middle	29
588.8283333333334	0	n/a	353298	KeyDown	41324	2	Ring	29
588.9083333333334	0	n/a	353346	KeyDown	41324	4	Index	29
589.2250000000000	0	n/a	353536	KeyDown	41324	4	Index	29
589.3350000000000	0	n/a	353602	KeyDown	41324	1	Little	29
589.5900000000000	0	n/a	353755	KeyDown	41324	3	Middle	29
589.8283333333334	0	n/a	353898	KeyDown	41324	2	Ring	29
589.9433333333334	0	n/a	353967	KeyDown	41324	4	Index	29
590.2283333333334	0	n/a	354138	KeyDown	41324	4	Index	29
590.3616666666667	0	n/a	354218	KeyDown	41324	1	Little	29
590.6133333333333	0	n/a	354369	KeyDown	41324	3	Middle	29
590.8650000000000	0	n/a	354520	KeyDown	41324	2	Ring	29
591.0150000000000	0	n/a	354610	KeyDown	41324	4	Index	29
591.2800000000001	0	n/a	354769	KeyDown	41324	4	Index	29
591.4000000000001	0	n/a	354841	KeyDown	41324	1	Little	29
591.7983333333334	0	n/a	355080	KeyDown	41324	3	Middle	29
592.1433333333333	0	n/a	355287	KeyDown	41324	2	Ring	29
592.2750000000001	0	n/a	355366	KeyDown	41324	4	Index	29
592.6400000000000	0	n/a	355585	KeyDown	41324	4	Index	29
592.9500000000000	0	n/a	355771	KeyDown	41324	1	Little	29
593.6666666666667	0	n/a	356201	KeyDown	41324	3	Middle	29
593.7050000000000	0	n/a	356224	StopPractice	41324	n/a	n/a	29
593.7066666666667	0	n/a	356225	StartRest	XXXXX	n/a	n/a	29
603.7400000000000	0	n/a	362245	StopRest	XXXXX	n/a	n/a	29
603.7416666666667	0	UPPT001	362246	StartPractice	41324	n/a	n/a	30
604.5650000000001	0	n/a	362740	KeyDown	41324	4	Index	30
604.6733333333334	0	n/a	362805	KeyDown	41324	1	Little	30
604.9033333333334	0	n/a	362943	KeyDown	41324	3	Middle	30
605.1533333333334	0	n/a	363093	KeyDown	41324	2	Ring	30
605.2733333333334	0	n/a	363165	KeyDown	41324	4	Index	30
605.5683333333334	0	n/a	363342	KeyDown	41324	4	Index	30
605.7050000000000	0	n/a	363424	KeyDown	41324	1	Little	30
606.0083333333333	0	n/a	363606	KeyDown	41324	3	Middle	30
606.2683333333333	0	n/a	363762	KeyDown	41324	2	Ring	30
606.3783333333333	0	n/a	363828	KeyDown	41324	4	Index	30
606.6850000000001	0	n/a	364012	KeyDown	41324	4	Index	30
606.7933333333334	0	n/a	364077	KeyDown	41324	1	Little	30
607.1133333333333	0	n/a	364269	KeyDown	41324	3	Middle	30
607.3200000000001	0	n/a	364393	KeyDown	41324	2	Ring	30
607.4616666666667	0	n/a	364478	KeyDown	41324	4	Index	30
607.7433333333333	0	n/a	364647	KeyDown	41324	4	Index	30
607.8750000000000	0	n/a	364726	KeyDown	41324	1	Little	30
608.1083333333333	0	n/a	364866	KeyDown	41324	3	Middle	30
608.3500000000000	0	n/a	365011	KeyDown	41324	2	Ring	30
608.4716666666667	0	n/a	365084	KeyDown	41324	4	Index	30
608.7600000000000	0	n/a	365257	KeyDown	41324	4	Index	30
608.8850000000000	0	n/a	365332	KeyDown	41324	1	Little	30
609.1483333333334	0	n/a	365490	KeyDown	41324	3	Middle	30
609.3883333333333	0	n/a	365634	KeyDown	41324	2	Ring	30
609.5150000000000	0	n/a	365710	KeyDown	41324	4	Index	30
609.7916666666667	0	n/a	365876	KeyDown	41324	4	Index	30
609.9150000000001	0	n/a	365950	KeyDown	41324	1	Little	30
610.1883333333334	0	n/a	366114	KeyDown	41324	3	Middle	30
610.4250000000001	0	n/a	366256	KeyDown	41324	2	Ring	30
610.5550000000001	0	n/a	366334	KeyDown	41324	4	Index	30
610.8400000000000	0	n/a	366505	KeyDown	41324	4	Index	30
610.9700000000000	0	n/a	366583	KeyDown	41324	1	Little	30
611.2300000000000	0	n/a	366739	KeyDown	41324	3	Middle	30
611.4716666666667	0	n/a	366884	KeyDown	41324	2	Ring	30
611.6116666666667	0	n/a	366968	KeyDown	41324	4	Index	30
611.9033333333334	0	n/a	367143	KeyDown	41324	4	Index	30
612.0333333333334	0	n/a	367221	KeyDown	41324	1	Little	30
612.2883333333334	0	n/a	367374	KeyDown	41324	3	Middle	30
612.6583333333334	0	n/a	367596	KeyDown	41324	2	Ring	30
612.8883333333333	0	n/a	367734	KeyDown	41324	4	Index	30
613.2150000000000	0	n/a	367930	KeyDown	41324	4	Index	30
613.3466666666667	0	n/a	368009	KeyDown	41324	1	Little	30
613.6400000000000	0	n/a	368185	KeyDown	41324	3	Middle	30
613.7800000000001	0	n/a	368269	StopPractice	41324	n/a	n/a	30
613.7816666666668	0	n/a	368270	StartRest	XXXXX	n/a	n/a	30
623.8150000000001	0	n/a	374290	StopRest	XXXXX	n/a	n/a	30
623.8166666666667	0	UPPT001	374291	StartPractice	41324	n/a	n/a	31
624.5050000000000	0	n/a	374704	KeyDown	41324	4	Index	31
624.8950000000001	0	n/a	374938	KeyDown	41324	1	Little	31
625.1683333333334	0	n/a	375102	KeyDown	41324	3	Middle	31
625.4533333333334	0	n/a	375273	KeyDown	41324	2	Ring	31
625.5866666666667	0	n/a	375353	KeyDown	41324	4	Index	31
625.8933333333334	0	n/a	375537	KeyDown	41324	4	Index	31
626.0033333333333	0	n/a	375603	KeyDown	41324	1	Little	31
626.2383333333333	0	n/a	375744	KeyDown	41324	3	Middle	31
626.4633333333334	0	n/a	375879	KeyDown	41324	2	Ring	31
626.5966666666667	0	n/a	375959	KeyDown	41324	4	Index	31
626.8850000000000	0	n/a	376132	KeyDown	41324	4	Index	31
626.9983333333333	0	n/a	376200	KeyDown	41324	1	Little	31
627.2433333333333	0	n/a	376347	KeyDown	41324	3	Middle	31
627.5183333333334	0	n/a	376512	KeyDown	41324	2	Ring	31
627.6233333333333	0	n/a	376575	KeyDown	41324	4	Index	31
627.9183333333334	0	n/a	376752	KeyDown	41324	4	Index	31
628.0550000000001	0	n/a	376834	KeyDown	41324	1	Little	31
628.3050000000001	0	n/a	376984	KeyDown	41324	3	Middle	31
628.5783333333334	0	n/a	377148	KeyDown	41324	2	Ring	31
628.7400000000000	0	n/a	377245	KeyDown	41324	4	Index	31
629.0516666666667	0	n/a	377432	KeyDown	41324	4	Index	31
629.2316666666667	0	n/a	377540	KeyDown	41324	1	Little	31
629.4966666666667	0	n/a	377699	KeyDown	41324	3	Middle	31
629.7700000000001	0	n/a	377863	KeyDown	41324	2	Ring	31
629.8800000000000	0	n/a	377929	KeyDown	41324	4	Index	31
630.2150000000000	0	n/a	378130	KeyDown	41324	4	Index	31
630.3700000000000	0	n/a	378223	KeyDown	41324	1	Little	31
630.6233333333333	0	n/a	378375	KeyDown	41324	3	Middle	31
630.9216666666667	0	n/a	378554	KeyDown	41324	2	Ring	31
631.0300000000001	0	n/a	378619	KeyDown	41324	4	Index	31
631.8200000000001	0	n/a	379093	KeyDown	41324	4	Index	31
631.9583333333334	0	n/a	379176	KeyDown	41324	1	Little	31
632.3750000000000	0	n/a	379426	KeyDown	41324	3	Middle	31
632.6833333333334	0	n/a	379611	KeyDown	41324	2	Ring	31
632.7733333333334	0	n/a	379665	KeyDown	41324	4	Index	31
633.1283333333333	0	n/a	379878	KeyDown	41324	4	Index	31
633.2650000000000	0	n/a	379960	KeyDown	41324	1	Little	31
633.6100000000000	0	n/a	380167	KeyDown	41324	3	Middle	31
633.8550000000000	0	n/a	380314	StopPractice	41324	n/a	n/a	31
633.8566666666667	0	n/a	380315	StartRest	XXXXX	n/a	n/a	31
643.8900000000000	0	n/a	386335	StopRest	XXXXX	n/a	n/a	31
643.8916666666667	0	UPPT001	386336	StartPractice	41324	n/a	n/a	32
644.5283333333334	0	n/a	386718	KeyDown	41324	4	Index	32
644.6683333333334	0	n/a	386802	KeyDown	41324	1	Little	32
645.2100000000000	0	n/a	387127	KeyDown	41324	3	Middle	32
645.4983333333333	0	n/a	387300	KeyDown	41324	2	Ring	32
645.5983333333334	0	n/a	387360	KeyDown	41324	4	Index	32
645.8950000000001	0	n/a	387538	KeyDown	41324	4	Index	32
646.0516666666667	0	n/a	387632	KeyDown	41324	1	Little	32
646.2733333333334	0	n/a	387765	KeyDown	41324	3	Middle	32
646.4850000000000	0	n/a	387892	KeyDown	41324	2	Ring	32
646.6083333333333	0	n/a	387966	KeyDown	41324	4	Index	32
646.8900000000000	0	n/a	388135	KeyDown	41324	4	Index	32
647.0300000000001	0	n/a	388219	KeyDown	41324	1	Little	32
647.2400000000000	0	n/a	388345	KeyDown	41324	3	Middle	32
647.4950000000000	0	n/a	388498	KeyDown	41324	2	Ring	32
647.5950000000000	0	n/a	388558	KeyDown	41324	4	Index	32
647.8766666666667	0	n/a	388727	KeyDown	41324	4	Index	32
648.0083333333333	0	n/a	388806	KeyDown	41324	1	Little	32
648.2383333333333	0	n/a	388944	KeyDown	41324	3	Middle	32
648.4750000000000	0	n/a	389086	KeyDown	41324	2	Ring	32
648.5816666666667	0	n/a	389150	KeyDown	41324	4	Index	32
648.8750000000000	0	n/a	389326	KeyDown	41324	4	Index	32
649.0383333333334	0	n/a	389424	KeyDown	41324	1	Little	32
649.2550000000000	0	n/a	389554	KeyDown	41324	3	Middle	32
649.4950000000000	0	n/a	389698	KeyDown	41324	2	Ring	32
649.6050000000000	0	n/a	389764	KeyDown	41324	4	Index	32
649.8966666666668	0	n/a	389939	KeyDown	41324	4	Index	32
650.3983333333334	0	n/a	390240	KeyDown	41324	1	Little	32
650.7183333333334	0	n/a	390432	KeyDown	41324	3	Middle	32
651.0250000000001	0	n/a	390616	KeyDown	41324	2	Ring	32
651.1066666666667	0	n/a	390665	KeyDown	41324	4	Index	32
651.4000000000001	0	n/a	390841	KeyDown	41324	4	Index	32
651.5833333333334	0	n/a	390951	KeyDown	41324	1	Little	32
651.7966666666667	0	n/a	391079	KeyDown	41324	3	Middle	32
652.2450000000000	0	n/a	391348	KeyDown	41324	2	Ring	32
652.3316666666667	0	n/a	391400	KeyDown	41324	4	Index	32
652.6533333333334	0	n/a	391593	KeyDown	41324	4	Index	32
652.9016666666668	0	n/a	391742	KeyDown	41324	1	Little	32
653.1500000000001	0	n/a	391891	KeyDown	41324	3	Middle	32
653.4350000000001	0	n/a	392062	KeyDown	41324	2	Ring	32
653.5250000000001	0	n/a	392116	KeyDown	41324	4	Index	32
653.8300000000000	0	n/a	392299	KeyDown	41324	4	Index	32
653.9300000000001	0	n/a	392359	StopPractice	41324	n/a	n/a	32
653.9316666666667	0	n/a	392360	StartRest	XXXXX	n/a	n/a	32
663.9650000000000	0	n/a	398380	StopRest	XXXXX	n/a	n/a	32
663.9666666666667	0	UPPT001	398381	StartPractice	41324	n/a	n/a	33
665.1850000000001	0	n/a	399112	KeyDown	41324	4	Index	33
665.3000000000001	0	n/a	399181	KeyDown	41324	1	Little	33
665.5066666666667	0	n/a	399305	KeyDown	41324	3	Middle	33
665.7150000000000	0	n/a	399430	KeyDown	41324	2	Ring	33
665.8883333333333	0	n/a	399534	KeyDown	41324	4	Index	33
666.1600000000001	0	n/a	399697	KeyDown	41324	4	Index	33
666.2950000000001	0	n/a	399778	KeyDown	41324	1	Little	33
666.4916666666667	0	n/a	399896	KeyDown	41324	3	Middle	33
666.6933333333334	0	n/a	400017	KeyDown	41324	2	Ring	33
666.8300000000000	0	n/a	400099	KeyDown	41324	4	Index	33
667.0883333333334	0	n/a	400254	KeyDown	41324	4	Index	33
667.2466666666667	0	n/a	400349	KeyDown	41324	1	Little	33
667.4533333333334	0	n/a	400473	KeyDown	41324	3	Middle	33
667.6766666666667	0	n/a	400607	KeyDown	41324	2	Ring	33
667.7700000000001	0	n/a	400663	KeyDown	41324	4	Index	33
668.0483333333334	0	n/a	400830	KeyDown	41324	4	Index	33
668.4700000000000	0	n/a	401083	KeyDown	41324	1	Little	33
668.6783333333334	0	n/a	401208	KeyDown	41324	3	Middle	33
669.6450000000001	0	n/a	401788	KeyDown	41324	2	Ring	33
669.7700000000001	0	n/a	401863	KeyDown	41324	4	Index	33
670.0750000000000	0	n/a	402046	KeyDown	41324	4	Index	33
670.2650000000000	0	n/a	402160	KeyDown	41324	1	Little	33
670.4683333333334	0	n/a	402282	KeyDown	41324	3	Middle	33
670.7716666666668	0	n/a	402464	KeyDown	41324	2	Ring	33
670.9100000000001	0	n/a	402547	KeyDown	41324	4	Index	33
671.4683333333334	0	n/a	402882	KeyDown	41324	4	Index	33
671.7350000000000	0	n/a	403042	KeyDown	41324	1	Little	33
671.9750000000000	0	n/a	403186	KeyDown	41324	3	Middle	33
672.2433333333333	0	n/a	403347	KeyDown	41324	2	Ring	33
672.3200000000001	0	n/a	403393	KeyDown	41324	4	Index	33
672.6833333333334	0	n/a	403611	KeyDown	41324	4	Index	33
673.0000000000000	0	n/a	403801	KeyDown	41324	1	Little	33
673.2083333333334	0	n/a	403926	KeyDown	41324	3	Middle	33
673.4883333333333	0	n/a	404094	KeyDown	41324	2	Ring	33
673.5500000000001	0	n/a	404131	KeyDown	41324	4	Index	33
673.8633333333333	0	n/a	404319	KeyDown	41324	4	Index	33
674.0050000000000	0	n/a	404404	StopPractice	41324	n/a	n/a	33
674.0066666666667	0	n/a	404405	StartRest	XXXXX	n/a	n/a	33
684.0400000000001	0	n/a	410425	StopRest	XXXXX	n/a	n/a	33
684.0416666666667	0	UPPT001	410426	StartPractice	41324	n/a	n/a	34
684.9250000000001	0	n/a	410956	KeyDown	41324	4	Index	34
685.0400000000001	0	n/a	411025	KeyDown	41324	1	Little	34
685.2116666666667	0	n/a	411128	KeyDown	41324	3	Middle	34
685.4233333333334	0	n/a	411255	KeyDown	41324	2	Ring	34
685.5300000000001	0	n/a	411319	KeyDown	41324	4	Index	34
685.8400000000000	0	n/a	411505	KeyDown	41324	4	Index	34
686.0116666666667	0	n/a	411608	KeyDown	41324	1	Little	34
686.1950000000001	0	n/a	411718	KeyDown	41324	3	Middle	34
686.4050000000001	0	n/a	411844	KeyDown	41324	2	Ring	34
686.4750000000000	0	n/a	411886	KeyDown	41324	4	Index	34
686.7433333333333	0	n/a	412047	KeyDown	41324	4	Index	34
686.9233333333334	0	n/a	412155	KeyDown	41324	1	Little	34
687.0950000000000	0	n/a	412258	KeyDown	41324	3	Middle	34
687.3550000000000	0	n/a	412414	KeyDown	41324	2	Ring	34
687.4466666666667	0	n/a	412469	KeyDown	41324	4	Index	34
687.6900000000001	0	n/a	412615	KeyDown	41324	4	Index	34
687.8850000000000	0	n/a	412732	KeyDown	41324	1	Little	34
688.1016666666667	0	n/a	412862	KeyDown	41324	3	Middle	34
688.3950000000001	0	n/a	413038	KeyDown	41324	2	Ring	34
688.5550000000001	0	n/a	413134	KeyDown	41324	4	Index	34
689.1516666666668	0	n/a	413492	KeyDown	41324	4	Index	34
689.7900000000001	0	n/a	413875	KeyDown	41324	1	Little	34
690.1433333333334	0	n/a	414087	KeyDown	41324	3	Middle	34
690.4300000000001	0	n/a	414259	KeyDown	41324	2	Ring	34
690.5366666666667	0	n/a	414323	KeyDown	41324	4	Index	34
690.8616666666667	0	n/a	414518	KeyDown	41324	4	Index	34
691.1700000000001	0	n/a	414703	KeyDown	41324	1	Little	34
691.8433333333334	0	n/a	415107	KeyDown	41324	3	Middle	34
692.2683333333334	0	n/a	415362	KeyDown	41324	2	Ring	34
692.3783333333333	0	n/a	415428	KeyDown	41324	3	Middle	34
693.3600000000000	0	n/a	416017	KeyDown	41324	4	Index	34
694.0533333333334	0	n/a	416433	KeyDown	41324	2	Ring	34
694.0800000000000	0	n/a	416449	StopPractice	41324	n/a	n/a	34
694.0816666666667	0	n/a	416450	StartRest	XXXXX	n/a	n/a	34
704.1150000000000	0	n/a	422470	StopRest	XXXXX	n/a	n/a	34
704.1166666666667	0	UPPT001	422471	StartPractice	41324	n/a	n/a	35
704.7333333333333	0	n/a	422841	KeyDown	41324	4	Index	35
704.9000000000001	0	n/a	422941	KeyDown	41324	1	Little	35
705.1650000000001	0	n/a	423100	KeyDown	41324	3	Middle	35
705.4450000000001	0	n/a	423268	KeyDown	41324	2	Ring	35
705.5900000000000	0	n/a	423355	KeyDown	41324	4	Index	35
705.8750000000000	0	n/a	423526	KeyDown	41324	4	Index	35
706.0183333333334	0	n/a	423612	KeyDown	41324	1	Little	35
706.2283333333334	0	n/a	423738	KeyDown	41324	3	Middle	35
706.4783333333334	0	n/a	423888	KeyDown	41324	2	Ring	35
706.5283333333334	0	n/a	423918	KeyDown	41324	4	Index	35
706.8600000000000	0	n/a	424117	KeyDown	41324	4	Index	35
707.0516666666667	0	n/a	424232	KeyDown	41324	1	Little	35
707.2533333333333	0	n/a	424353	KeyDown	41324	3	Middle	35
707.5183333333334	0	n/a	424512	KeyDown	41324	2	Ring	35
707.6283333333333	0	n/a	424578	KeyDown	41324	4	Index	35
707.9083333333334	0	n/a	424746	KeyDown	41324	4	Index	35
708.0650000000001	0	n/a	424840	KeyDown	41324	1	Little	35
708.3000000000001	0	n/a	424981	KeyDown	41324	3	Middle	35
708.6433333333334	0	n/a	425187	KeyDown	41324	2	Ring	35
708.7283333333334	0	n/a	425238	KeyDown	41324	4	Index	35
709.0750000000000	0	n/a	425446	KeyDown	41324	4	Index	35
709.2483333333333	0	n/a	425550	KeyDown	41324	1	Little	35
709.5250000000001	0	n/a	425716	KeyDown	41324	3	Middle	35
710.3550000000000	0	n/a	426214	KeyDown	41324	2	Ring	35
710.4100000000001	0	n/a	426247	KeyDown	41324	4	Index	35
710.8683333333333	0	n/a	426522	KeyDown	41324	4	Index	35
711.0516666666667	0	n/a	426632	KeyDown	41324	1	Little	35
711.3233333333334	0	n/a	426795	KeyDown	41324	3	Middle	35
711.7383333333333	0	n/a	427044	KeyDown	41324	2	Ring	35
711.7900000000001	0	n/a	427075	KeyDown	41324	4	Index	35
712.1483333333334	0	n/a	427290	KeyDown	41324	4	Index	35
712.3416666666667	0	n/a	427406	KeyDown	41324	1	Little	35
712.7900000000001	0	n/a	427675	KeyDown	41324	3	Middle	35
713.3250000000000	0	n/a	427996	KeyDown	41324	2	Ring	35
713.3950000000001	0	n/a	428038	KeyDown	41324	4	Index	35
713.7383333333333	0	n/a	428244	KeyDown	41324	4	Index	35
713.9150000000001	0	n/a	428350	KeyDown	41324	1	Little	35
714.1550000000001	0	n/a	428494	StopPractice	41324	n/a	n/a	35
714.1566666666668	0	n/a	428495	StartRest	XXXXX	n/a	n/a	35
724.1900000000001	0	n/a	434515	StopRest	XXXXX	n/a	n/a	35
724.1916666666667	0	UPPT001	434516	StartPractice	41324	n/a	n/a	36
725.0116666666668	0	n/a	435008	KeyDown	41324	4	Index	36
725.0916666666667	0	n/a	435056	KeyDown	41324	1	Little	36
725.3433333333334	0	n/a	435207	KeyDown	41324	3	Middle	36
725.6383333333334	0	n/a	435384	KeyDown	41324	2	Ring	36
725.6900000000001	0	n/a	435415	KeyDown	41324	4	Index	36
726.0283333333334	0	n/a	435618	KeyDown	41324	4	Index	36
726.1616666666667	0	n/a	435698	KeyDown	41324	1	Little	36
726.3950000000001	0	n/a	435838	KeyDown	41324	3	Middle	36
726.6383333333334	0	n/a	435984	KeyDown	41324	2	Ring	36
726.7283333333334	0	n/a	436038	KeyDown	41324	4	Index	36
727.0183333333334	0	n/a	436212	KeyDown	41324	4	Index	36
727.1766666666667	0	n/a	436307	KeyDown	41324	1	Little	36
727.4266666666667	0	n/a	436457	KeyDown	41324	3	Middle	36
727.6933333333334	0	n/a	436617	KeyDown	41324	2	Ring	36
727.7683333333334	0	n/a	436662	KeyDown	41324	4	Index	36
728.0666666666667	0	n/a	436841	KeyDown	41324	4	Index	36
728.2150000000000	0	n/a	436930	KeyDown	41324	1	Little	36
728.5050000000000	0	n/a	437104	KeyDown	41324	3	Middle	36
728.8383333333334	0	n/a	437304	KeyDown	41324	2	Ring	36
728.9216666666667	0	n/a	437354	KeyDown	41324	4	Index	36
729.2033333333334	0	n/a	437523	KeyDown	41324	4	Index	36
729.3933333333334	0	n/a	437637	KeyDown	41324	1	Little	36
729.6033333333334	0	n/a	437763	KeyDown	41324	3	Middle	36
729.9100000000001	0	n/a	437947	KeyDown	41324	2	Ring	36
730.0133333333334	0	n/a	438009	KeyDown	41324	4	Index	36
730.2933333333334	0	n/a	438177	KeyDown	41324	4	Index	36
731.4833333333333	0	n/a	438891	KeyDown	41324	1	Little	36
731.8050000000001	0	n/a	439084	KeyDown	41324	3	Middle	36
732.1383333333334	0	n/a	439284	KeyDown	41324	2	Ring	36
732.2250000000000	0	n/a	439336	KeyDown	41324	4	Index	36
732.5400000000001	0	n/a	439525	KeyDown	41324	4	Index	36
732.6850000000001	0	n/a	439612	KeyDown	41324	1	Little	36
732.9400000000001	0	n/a	439765	KeyDown	41324	3	Middle	36
733.4450000000001	0	n/a	440068	KeyDown	41324	2	Ring	36
733.5000000000000	0	n/a	440101	KeyDown	41324	4	Index	36
733.8783333333333	0	n/a	440328	KeyDown	41324	4	Index	36
734.0666666666667	0	n/a	440441	KeyDown	41324	1	Little	36
734.2300000000000	0	n/a	440539	StopPractice	41324	n/a	n/a	36
734.2316666666667	0	n/a	440540	StartRest	XXXXX	n/a	n/a	36
744.2666666666668	0	n/a	446561	StopRest	XXXXX	n/a	n/a	36
