onset	duration	channel	onset_sample_idx	event_type	target_sequence	keypress_id	finger_label	trial_number
4.6000000000000	0	UPPT001	2761	StartPractice	41324	n/a	n/a	1
9.2583333333333	0	n/a	5556	KeyDown	41324	4	Index	1
9.8266666666667	0	n/a	5897	KeyDown	41324	1	Little	1
11.6416666666667	0	n/a	6986	KeyDown	41324	3	Middle	1
12.3466666666667	0	n/a	7409	KeyDown	41324	2	Ring	1
12.7983333333333	0	n/a	7680	KeyDown	41324	4	Index	1
14.6383333333333	0	n/a	8784	StopPractice	41324	n/a	n/a	1
14.6400000000000	0	n/a	8785	StartRest	XXXXX	n/a	n/a	1
24.6683333333333	0	n/a	14802	StopRest	XXXXX	n/a	n/a	1
24.6700000000000	0	UPPT001	14803	StartPractice	41324	n/a	n/a	2
26.1216666666667	0	n/a	15674	KeyDown	41324	4	Index	2
26.6916666666667	0	n/a	16016	KeyDown	41324	1	Little	2
27.7066666666667	0	n/a	16625	KeyDown	41324	3	Middle	2
28.5650000000000	0	n/a	17140	KeyDown	41324	2	Ring	2
29.0483333333333	0	n/a	17430	KeyDown	41324	4	Index	2
34.7083333333333	0	n/a	20826	StopPractice	41324	n/a	n/a	2
34.7100000000000	0	n/a	20827	StartRest	XXXXX	n/a	n/a	2
44.7433333333333	0	n/a	26847	StopRest	XXXXX	n/a	n/a	2
44.7450000000000	0	UPPT001	26848	StartPractice	41324	n/a	n/a	3
45.7316666666667	0	n/a	27440	KeyDown	41324	4	Index	3
46.4166666666667	0	n/a	27851	KeyDown	41324	1	Little	3
47.2166666666667	0	n/a	28331	KeyDown	41324	3	Middle	3
47.7583333333333	0	n/a	28656	KeyDown	41324	2	Ring	3
48.2716666666667	0	n/a	28964	KeyDown	41324	4	Index	3
54.7833333333333	0	n/a	32871	StopPractice	41324	n/a	n/a	3
54.7850000000000	0	n/a	32872	StartRest	XXXXX	n/a	n/a	3
64.8183333333333	0	n/a	38892	StopRest	XXXXX	n/a	n/a	3
64.8200000000000	0	UPPT001	38893	StartPractice	41324	n/a	n/a	4
66.0416666666667	0	n/a	39626	KeyDown	41324	4	Index	4
66.6783333333333	0	n/a	40008	KeyDown	41324	1	Little	4
68.0083333333333	0	n/a	40806	KeyDown	41324	3	Middle	4
68.6316666666667	0	n/a	41180	KeyDown	41324	2	Ring	4
69.0766666666667	0	n/a	41447	KeyDown	41324	4	Index	4
74.8583333333333	0	n/a	44916	StopPractice	41324	n/a	n/a	4
74.8600000000000	0	n/a	44917	StartRest	XXXXX	n/a	n/a	4
84.8916666666667	0	n/a	50936	StopRest	XXXXX	n/a	n/a	4
84.8933333333333	0	UPPT001	50937	StartPractice	41324	n/a	n/a	5
86.3100000000000	0	n/a	51787	KeyDown	41324	4	Index	5
86.8166666666667	0	n/a	52091	KeyDown	41324	1	Little	5
87.5783333333333	0	n/a	52548	KeyDown	41324	3	Middle	5
88.6350000000000	0	n/a	53182	KeyDown	41324	2	Ring	5
90.8650000000000	0	n/a	54520	KeyDown	41324	4	Index	5
91.9100000000000	0	n/a	55147	KeyDown	41324	1	Little	5
93.9516666666667	0	n/a	56372	KeyDown	41324	3	Middle	5
94.4000000000000	0	n/a	56641	KeyDown	41324	2	Ring	5
94.7700000000000	0	n/a	56863	KeyDown	41324	4	Index	5
94.9316666666667	0	n/a	56960	StopPractice	41324	n/a	n/a	5
94.9333333333333	0	n/a	56961	StartRest	XXXXX	n/a	n/a	5
104.9683333333333	0	n/a	62982	StopRest	XXXXX	n/a	n/a	5
104.9700000000000	0	UPPT001	62983	StartPractice	41324	n/a	n/a	6
105.7750000000000	0	n/a	63466	KeyDown	41324	4	Index	6
106.1800000000000	0	n/a	63709	KeyDown	41324	1	Little	6
107.4966666666667	0	n/a	64499	KeyDown	41324	3	Middle	6
107.8466666666667	0	n/a	64709	KeyDown	41324	2	Ring	6
108.2266666666667	0	n/a	64937	KeyDown	41324	1	Little	6
108.8166666666667	0	n/a	65291	KeyDown	41324	4	Index	6
109.5233333333333	0	n/a	65715	KeyDown	41324	1	Little	6
110.4850000000000	0	n/a	66292	KeyDown	41324	3	Middle	6
110.8950000000000	0	n/a	66538	KeyDown	41324	2	Ring	6
111.2633333333333	0	n/a	66759	KeyDown	41324	4	Index	6
111.7300000000000	0	n/a	67039	KeyDown	41324	4	Index	6
112.6433333333333	0	n/a	67587	KeyDown	41324	1	Little	6
113.5800000000000	0	n/a	68149	KeyDown	41324	3	Middle	6
113.9316666666667	0	n/a	68360	KeyDown	41324	2	Ring	6
114.2733333333333	0	n/a	68565	KeyDown	41324	4	Index	6
114.6516666666667	0	n/a	68792	KeyDown	41324	4	Index	6
115.0083333333333	0	n/a	69006	StopPractice	41324	n/a	n/a	6
115.0100000000000	0	n/a	69007	StartRest	XXXXX	n/a	n/a	6
125.0433333333333	0	n/a	75027	StopRest	XXXXX	n/a	n/a	6
125.0450000000000	0	UPPT001	75028	StartPractice	41324	n/a	n/a	7
125.9000000000000	0	n/a	75541	KeyDown	41324	4	Index	7
126.1950000000000	0	n/a	75718	KeyDown	41324	1	Little	7
126.6783333333333	0	n/a	76008	KeyDown	41324	3	Middle	7
127.0500000000000	0	n/a	76231	KeyDown	41324	2	Ring	7
127.4983333333333	0	n/a	76500	KeyDown	41324	4	Index	7
128.2116666666667	0	n/a	76928	KeyDown	41324	4	Index	7
128.7666666666667	0	n/a	77261	KeyDown	41324	1	Little	7
130.0616666666667	0	n/a	78038	KeyDown	41324	3	Middle	7
130.4066666666667	0	n/a	78245	KeyDown	41324	2	Ring	7
130.8316666666667	0	n/a	78500	KeyDown	41324	4	Index	7
132.1333333333334	0	n/a	79281	KeyDown	41324	4	Index	7
132.4583333333333	0	n/a	79476	KeyDown	41324	1	Little	7
133.2366666666667	0	n/a	79943	KeyDown	41324	3	Middle	7
133.8183333333333	0	n/a	80292	KeyDown	41324	2	Ring	7
134.1716666666667	0	n/a	80504	KeyDown	41324	4	Index	7
134.7183333333333	0	n/a	80832	KeyDown	41324	4	Index	7
135.0833333333333	0	n/a	81051	StopPractice	41324	n/a	n/a	7
135.0850000000000	0	n/a	81052	StartRest	XXXXX	n/a	n/a	7
145.1183333333333	0	n/a	87072	StopRest	XXXXX	n/a	n/a	7
145.1200000000000	0	UPPT001	87073	StartPractice	41324	n/a	n/a	8
145.7000000000000	0	n/a	87421	KeyDown	41324	4	Index	8
145.9683333333333	0	n/a	87582	KeyDown	41324	1	Little	8
146.4333333333333	0	n/a	87861	KeyDown	41324	3	Middle	8
146.7583333333334	0	n/a	88056	KeyDown	41324	2	Ring	8
147.1400000000000	0	n/a	88285	KeyDown	41324	4	Index	8
148.0516666666667	0	n/a	88832	KeyDown	41324	4	Index	8
148.3866666666667	0	n/a	89033	KeyDown	41324	1	Little	8
148.8550000000000	0	n/a	89314	KeyDown	41324	3	Middle	8
149.1250000000000	0	n/a	89476	KeyDown	41324	2	Ring	8
149.4366666666667	0	n/a	89663	KeyDown	41324	4	Index	8
149.9550000000000	0	n/a	89974	KeyDown	41324	1	Little	8
153.8416666666667	0	n/a	92306	KeyDown	41324	4	Index	8
154.1550000000000	0	n/a	92494	KeyDown	41324	1	Little	8
155.1583333333333	0	n/a	93096	StopPractice	41324	n/a	n/a	8
155.1600000000000	0	n/a	93097	StartRest	XXXXX	n/a	n/a	8
165.1916666666667	0	n/a	99116	StopRest	XXXXX	n/a	n/a	8
165.1933333333334	0	UPPT001	99117	StartPractice	41324	n/a	n/a	9
165.7950000000000	0	n/a	99478	KeyDown	41324	4	Index	9
166.0616666666667	0	n/a	99638	KeyDown	41324	1	Little	9
166.9466666666667	0	n/a	100169	KeyDown	41324	3	Middle	9
167.3000000000000	0	n/a	100381	KeyDown	41324	2	Ring	9
167.6216666666667	0	n/a	100574	KeyDown	41324	4	Index	9
168.0850000000000	0	n/a	100852	KeyDown	41324	4	Index	9
168.3900000000000	0	n/a	101035	KeyDown	41324	1	Little	9
169.6650000000000	0	n/a	101800	KeyDown	41324	3	Middle	9
169.9650000000000	0	n/a	101980	KeyDown	41324	4	Index	9
170.8750000000000	0	n/a	102526	KeyDown	41324	1	Little	9
171.7166666666667	0	n/a	103031	KeyDown	41324	4	Index	9
172.4866666666667	0	n/a	103493	KeyDown	41324	1	Little	9
173.6683333333334	0	n/a	104202	KeyDown	41324	3	Middle	9
174.2116666666667	0	n/a	104528	KeyDown	41324	2	Ring	9
174.6216666666667	0	n/a	104774	KeyDown	41324	4	Index	9
175.2316666666667	0	n/a	105140	StopPractice	41324	n/a	n/a	9
175.2333333333333	0	n/a	105141	StartRest	XXXXX	n/a	n/a	9
185.2666666666667	0	n/a	111161	StopRest	XXXXX	n/a	n/a	9
185.2683333333333	0	UPPT001	111162	StartPractice	41324	n/a	n/a	10
186.1850000000000	0	n/a	111712	KeyDown	41324	4	Index	10
186.5550000000000	0	n/a	111934	KeyDown	41324	1	Little	10
186.9316666666667	0	n/a	112160	KeyDown	41324	3	Middle	10
187.4600000000000	0	n/a	112477	KeyDown	41324	2	Ring	10
187.8366666666667	0	n/a	112703	KeyDown	41324	4	Index	10
188.5066666666667	0	n/a	113105	KeyDown	41324	4	Index	10
188.9016666666667	0	n/a	113342	KeyDown	41324	1	Little	10
189.3816666666667	0	n/a	113630	KeyDown	41324	3	Middle	10
189.7933333333334	0	n/a	113877	KeyDown	41324	2	Ring	10
190.1266666666667	0	n/a	114077	KeyDown	41324	4	Index	10
190.7683333333333	0	n/a	114462	KeyDown	41324	4	Index	10
191.3566666666667	0	n/a	114815	KeyDown	41324	1	Little	10
192.7466666666667	0	n/a	115649	KeyDown	41324	3	Middle	10
193.1100000000000	0	n/a	115867	KeyDown	41324	2	Ring	10
193.4783333333334	0	n/a	116088	KeyDown	41324	4	Index	10
193.8283333333333	0	n/a	116298	KeyDown	41324	4	Index	10
194.1700000000000	0	n/a	116503	KeyDown	41324	1	Little	10
194.2300000000000	0	n/a	116539	KeyDown	41324	2	Ring	10
195.3066666666667	0	n/a	117185	StopPractice	41324	n/a	n/a	10
195.3083333333333	0	n/a	117186	StartRest	XXXXX	n/a	n/a	10
205.3416666666667	0	n/a	123206	StopRest	XXXXX	n/a	n/a	10
205.3433333333333	0	UPPT001	123207	StartPractice	41324	n/a	n/a	11
206.5116666666667	0	n/a	123908	KeyDown	41324	4	Index	11
206.8200000000000	0	n/a	124093	KeyDown	41324	1	Little	11
207.5500000000000	0	n/a	124531	KeyDown	41324	3	Middle	11
207.9300000000000	0	n/a	124759	KeyDown	41324	2	Ring	11
208.5600000000000	0	n/a	125137	KeyDown	41324	4	Index	11
209.2833333333334	0	n/a	125571	KeyDown	41324	4	Index	11
209.6250000000000	0	n/a	125776	KeyDown	41324	1	Little	11
210.6666666666667	0	n/a	126401	KeyDown	41324	3	Middle	11
211.1700000000000	0	n/a	126703	KeyDown	41324	2	Ring	11
211.6316666666667	0	n/a	126980	KeyDown	41324	4	Index	11
212.4350000000000	0	n/a	127462	KeyDown	41324	4	Index	11
212.7866666666667	0	n/a	127673	KeyDown	41324	1	Little	11
213.4200000000000	0	n/a	128053	KeyDown	41324	3	Middle	11
213.7300000000000	0	n/a	128239	KeyDown	41324	2	Ring	11
214.0533333333333	0	n/a	128433	KeyDown	41324	4	Index	11
215.3816666666667	0	n/a	129230	StopPractice	41324	n/a	n/a	11
215.3833333333334	0	n/a	129231	StartRest	XXXXX	n/a	n/a	11
225.4166666666667	0	n/a	135251	StopRest	XXXXX	n/a	n/a	11
225.4183333333334	0	UPPT001	135252	StartPractice	41324	n/a	n/a	12
226.5900000000000	0	n/a	135955	KeyDown	41324	4	Index	12
226.8850000000000	0	n/a	136132	KeyDown	41324	1	Little	12
227.3766666666667	0	n/a	136427	KeyDown	41324	3	Middle	12
227.7016666666667	0	n/a	136622	KeyDown	41324	2	Ring	12
227.9816666666667	0	n/a	136790	KeyDown	41324	4	Index	12
228.2650000000000	0	n/a	136960	KeyDown	41324	4	Index	12
228.6366666666667	0	n/a	137183	KeyDown	41324	1	Little	12
229.2850000000000	0	n/a	137572	KeyDown	41324	3	Middle	12
229.7200000000000	0	n/a	137833	KeyDown	41324	2	Ring	12
230.0366666666667	0	n/a	138023	KeyDown	41324	4	Index	12
231.1916666666667	0	n/a	138716	KeyDown	41324	4	Index	12
231.6566666666667	0	n/a	138995	KeyDown	41324	1	Little	12
232.1500000000000	0	n/a	139291	KeyDown	41324	3	Middle	12
232.5200000000000	0	n/a	139513	KeyDown	41324	2	Ring	12
232.8700000000000	0	n/a	139723	KeyDown	41324	4	Index	12
233.1233333333333	0	n/a	139875	KeyDown	41324	4	Index	12
233.8200000000000	0	n/a	140293	KeyDown	41324	1	Little	12
234.3350000000000	0	n/a	140602	KeyDown	41324	3	Middle	12
234.5500000000000	0	n/a	140731	KeyDown	41324	2	Ring	12
234.8366666666667	0	n/a	140903	KeyDown	41324	4	Index	12
235.4566666666667	0	n/a	141275	StopPractice	41324	n/a	n/a	12
235.4583333333333	0	n/a	141276	StartRest	XXXXX	n/a	n/a	12
245.4916666666667	0	n/a	147296	StopRest	XXXXX	n/a	n/a	12
245.4933333333333	0	UPPT001	147297	StartPractice	41324	n/a	n/a	13
246.0800000000000	0	n/a	147649	KeyDown	41324	4	Index	13
246.3600000000000	0	n/a	147817	KeyDown	41324	1	Little	13
246.6583333333334	0	n/a	147996	KeyDown	41324	3	Middle	13
246.9616666666667	0	n/a	148178	KeyDown	41324	2	Ring	13
248.3050000000000	0	n/a	148984	KeyDown	41324	4	Index	13
249.2950000000000	0	n/a	149578	KeyDown	41324	4	Index	13
250.0016666666667	0	n/a	150002	KeyDown	41324	1	Little	13
250.8000000000000	0	n/a	150481	KeyDown	41324	3	Middle	13
251.4350000000000	0	n/a	150862	KeyDown	41324	2	Ring	13
251.9016666666667	0	n/a	151142	KeyDown	41324	4	Index	13
253.1933333333334	0	n/a	151917	KeyDown	41324	4	Index	13
253.5283333333333	0	n/a	152118	KeyDown	41324	1	Little	13
254.1050000000000	0	n/a	152464	KeyDown	41324	3	Middle	13
254.5266666666667	0	n/a	152717	KeyDown	41324	2	Ring	13
255.0866666666667	0	n/a	153053	KeyDown	41324	4	Index	13
255.5316666666667	0	n/a	153320	StopPractice	41324	n/a	n/a	13
255.5333333333334	0	n/a	153321	StartRest	XXXXX	n/a	n/a	13
265.5666666666667	0	n/a	159341	StopRest	XXXXX	n/a	n/a	13
265.5683333333333	0	UPPT001	159342	StartPractice	41324	n/a	n/a	14
266.3933333333334	0	n/a	159837	KeyDown	41324	4	Index	14
266.6950000000000	0	n/a	160018	KeyDown	41324	1	Little	14
267.2866666666667	0	n/a	160373	KeyDown	41324	3	Middle	14
267.7933333333334	0	n/a	160677	KeyDown	41324	2	Ring	14
268.1850000000000	0	n/a	160912	KeyDown	41324	4	Index	14
268.9116666666667	0	n/a	161348	KeyDown	41324	4	Index	14
269.5366666666667	0	n/a	161723	KeyDown	41324	1	Little	14
270.1100000000000	0	n/a	162067	KeyDown	41324	3	Middle	14
270.5116666666667	0	n/a	162308	KeyDown	41324	2	Ring	14
270.9483333333333	0	n/a	162570	KeyDown	41324	4	Index	14
271.8083333333333	0	n/a	163086	KeyDown	41324	4	Index	14
272.3133333333333	0	n/a	163389	KeyDown	41324	1	Little	14
273.2383333333333	0	n/a	163944	KeyDown	41324	3	Middle	14
273.9550000000000	0	n/a	164374	KeyDown	41324	2	Ring	14
274.4966666666667	0	n/a	164699	KeyDown	41324	4	Index	14
274.9916666666667	0	n/a	164996	KeyDown	41324	4	Index	14
275.3783333333333	0	n/a	165228	KeyDown	41324	1	Little	14
275.6066666666667	0	n/a	165365	StopPractice	41324	n/a	n/a	14
275.6083333333333	0	n/a	165366	StartRest	XXXXX	n/a	n/a	14
285.6400000000000	0	n/a	171385	StopRest	XXXXX	n/a	n/a	14
285.6416666666667	0	UPPT001	171386	StartPractice	41324	n/a	n/a	15
286.3250000000000	0	n/a	171796	KeyDown	41324	4	Index	15
286.7416666666667	0	n/a	172046	KeyDown	41324	1	Little	15
287.3916666666667	0	n/a	172436	KeyDown	41324	3	Middle	15
287.8833333333333	0	n/a	172731	KeyDown	41324	2	Ring	15
288.3183333333333	0	n/a	172992	KeyDown	41324	4	Index	15
289.8033333333333	0	n/a	173883	KeyDown	41324	4	Index	15
290.5550000000000	0	n/a	174334	KeyDown	41324	1	Little	15
291.1950000000000	0	n/a	174718	KeyDown	41324	3	Middle	15
291.5850000000000	0	n/a	174952	KeyDown	41324	2	Ring	15
291.9683333333334	0	n/a	175182	KeyDown	41324	4	Index	15
292.8500000000000	0	n/a	175711	KeyDown	41324	4	Index	15
293.1933333333333	0	n/a	175917	KeyDown	41324	1	Little	15
293.5533333333333	0	n/a	176133	KeyDown	41324	3	Middle	15
293.8850000000000	0	n/a	176332	KeyDown	41324	2	Ring	15
294.2583333333333	0	n/a	176556	KeyDown	41324	4	Index	15
294.8650000000000	0	n/a	176920	KeyDown	41324	4	Index	15
295.3016666666667	0	n/a	177182	KeyDown	41324	1	Little	15
295.6800000000000	0	n/a	177409	StopPractice	41324	n/a	n/a	15
295.6816666666667	0	n/a	177410	StartRest	XXXXX	n/a	n/a	15
305.7166666666667	0	n/a	183431	StopRest	XXXXX	n/a	n/a	15
305.7183333333334	0	UPPT001	183432	StartPractice	41324	n/a	n/a	16
306.2750000000000	0	n/a	183766	KeyDown	41324	4	Index	16
306.5733333333334	0	n/a	183945	KeyDown	41324	1	Little	16
306.8900000000000	0	n/a	184135	KeyDown	41324	3	Middle	16
307.3166666666667	0	n/a	184391	KeyDown	41324	2	Ring	16
307.9833333333333	0	n/a	184791	KeyDown	41324	4	Index	16
308.7433333333333	0	n/a	185247	KeyDown	41324	4	Index	16
309.1766666666667	0	n/a	185507	KeyDown	41324	1	Little	16
309.6683333333334	0	n/a	185802	KeyDown	41324	3	Middle	16
310.1916666666667	0	n/a	186116	KeyDown	41324	2	Ring	16
310.5616666666667	0	n/a	186338	KeyDown	41324	4	Index	16
311.3683333333333	0	n/a	186822	KeyDown	41324	4	Index	16
311.7533333333333	0	n/a	187053	KeyDown	41324	1	Little	16
312.5616666666667	0	n/a	187538	KeyDown	41324	3	Middle	16
313.0416666666667	0	n/a	187826	KeyDown	41324	2	Ring	16
313.5250000000000	0	n/a	188116	KeyDown	41324	4	Index	16
313.8266666666667	0	n/a	188297	KeyDown	41324	4	Index	16
314.1200000000000	0	n/a	188473	KeyDown	41324	1	Little	16
314.7016666666667	0	n/a	188822	KeyDown	41324	3	Middle	16
315.7566666666667	0	n/a	189455	StopPractice	41324	n/a	n/a	16
315.7583333333333	0	n/a	189456	StartRest	XXXXX	n/a	n/a	16
325.7900000000000	0	n/a	195475	StopRest	XXXXX	n/a	n/a	16
325.7916666666667	0	UPPT001	195476	StartPractice	41324	n/a	n/a	17
326.5300000000000	0	n/a	195919	KeyDown	41324	4	Index	17
326.8583333333333	0	n/a	196116	KeyDown	41324	1	Little	17
327.9400000000000	0	n/a	196765	KeyDown	41324	3	Middle	17
328.2466666666667	0	n/a	196949	KeyDown	41324	2	Ring	17
328.6700000000000	0	n/a	197203	KeyDown	41324	4	Index	17
329.1283333333333	0	n/a	197478	KeyDown	41324	4	Index	17
329.5100000000000	0	n/a	197707	KeyDown	41324	1	Little	17
330.1233333333333	0	n/a	198075	KeyDown	41324	3	Middle	17
330.6000000000000	0	n/a	198361	KeyDown	41324	2	Ring	17
331.2250000000000	0	n/a	198736	KeyDown	41324	4	Index	17
332.2083333333334	0	n/a	199326	KeyDown	41324	4	Index	17
332.5516666666667	0	n/a	199532	KeyDown	41324	1	Little	17
333.1333333333334	0	n/a	199881	KeyDown	41324	3	Middle	17
333.8700000000000	0	n/a	200323	KeyDown	41324	2	Ring	17
334.5066666666667	0	n/a	200705	KeyDown	41324	1	Little	17
335.6850000000000	0	n/a	201412	KeyDown	41324	4	Index	17
335.8300000000000	0	n/a	201499	StopPractice	41324	n/a	n/a	17
335.8316666666667	0	n/a	201500	StartRest	XXXXX	n/a	n/a	17
345.8650000000000	0	n/a	207520	StopRest	XXXXX	n/a	n/a	17
345.8666666666667	0	UPPT001	207521	StartPractice	41324	n/a	n/a	18
346.6266666666667	0	n/a	207977	KeyDown	41324	4	Index	18
347.0233333333334	0	n/a	208215	KeyDown	41324	1	Little	18
347.6433333333334	0	n/a	208587	KeyDown	41324	3	Middle	18
348.2016666666667	0	n/a	208922	KeyDown	41324	2	Ring	18
348.6616666666667	0	n/a	209198	KeyDown	41324	4	Index	18
349.4800000000000	0	n/a	209689	KeyDown	41324	4	Index	18
349.9700000000000	0	n/a	209983	KeyDown	41324	1	Little	18
351.0366666666667	0	n/a	210623	KeyDown	41324	3	Middle	18
351.4983333333333	0	n/a	210900	KeyDown	41324	2	Ring	18
352.0233333333334	0	n/a	211215	KeyDown	41324	4	Index	18
352.3683333333333	0	n/a	211422	KeyDown	41324	4	Index	18
352.9100000000000	0	n/a	211747	KeyDown	41324	1	Little	18
353.6600000000000	0	n/a	212197	KeyDown	41324	3	Middle	18
354.1750000000000	0	n/a	212506	KeyDown	41324	2	Ring	18
354.8333333333334	0	n/a	212901	KeyDown	41324	4	Index	18
355.5816666666667	0	n/a	213350	KeyDown	41324	4	Index	18
355.9050000000000	0	n/a	213544	StopPractice	41324	n/a	n/a	18
355.9066666666667	0	n/a	213545	StartRest	XXXXX	n/a	n/a	18
365.9400000000000	0	n/a	219565	StopRest	XXXXX	n/a	n/a	18
365.9416666666667	0	UPPT001	219566	StartPractice	41324	n/a	n/a	19
366.5900000000000	0	n/a	219955	KeyDown	41324	4	Index	19
367.0850000000000	0	n/a	220252	KeyDown	41324	1	Little	19
368.2416666666667	0	n/a	220946	KeyDown	41324	3	Middle	19
368.6283333333333	0	n/a	221178	KeyDown	41324	2	Ring	19
369.0033333333333	0	n/a	221403	KeyDown	41324	4	Index	19
370.0050000000000	0	n/a	222004	KeyDown	41324	4	Index	19
370.3300000000000	0	n/a	222199	KeyDown	41324	1	Little	19
371.1083333333333	0	n/a	222666	KeyDown	41324	3	Middle	19
371.6150000000000	0	n/a	222970	KeyDown	41324	2	Ring	19
371.9083333333334	0	n/a	223146	KeyDown	41324	4	Index	19
372.4133333333334	0	n/a	223449	KeyDown	41324	4	Index	19
372.8133333333333	0	n/a	223689	KeyDown	41324	1	Little	19
374.2116666666667	0	n/a	224528	KeyDown	41324	3	Middle	19
374.5433333333334	0	n/a	224727	KeyDown	41324	2	Ring	19
374.8000000000000	0	n/a	224881	KeyDown	41324	4	Index	19
375.5600000000000	0	n/a	225337	KeyDown	41324	4	Index	19
375.8166666666667	0	n/a	225491	KeyDown	41324	1	Little	19
375.9800000000000	0	n/a	225589	StopPractice	41324	n/a	n/a	19
375.9816666666667	0	n/a	225590	StartRest	XXXXX	n/a	n/a	19
386.0150000000000	0	n/a	231610	StopRest	XXXXX	n/a	n/a	19
386.0166666666667	0	UPPT001	231611	StartPractice	41324	n/a	n/a	20
387.3700000000000	0	n/a	232423	KeyDown	41324	4	Index	20
387.6883333333333	0	n/a	232614	KeyDown	41324	1	Little	20
388.0483333333333	0	n/a	232830	KeyDown	41324	3	Middle	20
388.3983333333334	0	n/a	233040	KeyDown	41324	2	Ring	20
389.0033333333333	0	n/a	233403	KeyDown	41324	4	Index	20
389.5633333333333	0	n/a	233739	KeyDown	41324	4	Index	20
389.8933333333334	0	n/a	233937	KeyDown	41324	1	Little	20
390.3983333333334	0	n/a	234240	KeyDown	41324	3	Middle	20
390.9533333333334	0	n/a	234573	KeyDown	41324	2	Ring	20
391.3633333333333	0	n/a	234819	KeyDown	41324	4	Index	20
392.2833333333334	0	n/a	235371	KeyDown	41324	4	Index	20
392.6116666666667	0	n/a	235568	KeyDown	41324	1	Little	20
393.7933333333334	0	n/a	236277	KeyDown	41324	3	Middle	20
394.4233333333333	0	n/a	236655	KeyDown	41324	2	Ring	20
394.9300000000000	0	n/a	236959	KeyDown	41324	4	Index	20
395.9050000000000	0	n/a	237544	KeyDown	41324	4	Index	20
396.0550000000000	0	n/a	237634	StopPractice	41324	n/a	n/a	20
396.0566666666667	0	n/a	237635	StartRest	XXXXX	n/a	n/a	20
406.0900000000000	0	n/a	243655	StopRest	XXXXX	n/a	n/a	20
406.0916666666667	0	UPPT001	243656	StartPractice	41324	n/a	n/a	21
406.6700000000000	0	n/a	244003	KeyDown	41324	4	Index	21
407.4066666666667	0	n/a	244445	KeyDown	41324	1	Little	21
408.3883333333334	0	n/a	245034	KeyDown	41324	3	Middle	21
408.8650000000000	0	n/a	245320	KeyDown	41324	2	Ring	21
409.5883333333334	0	n/a	245754	KeyDown	41324	4	Index	21
410.3050000000000	0	n/a	246184	KeyDown	41324	4	Index	21
410.8200000000001	0	n/a	246493	KeyDown	41324	1	Little	21
411.6866666666667	0	n/a	247013	KeyDown	41324	3	Middle	21
412.1650000000000	0	n/a	247300	KeyDown	41324	2	Ring	21
412.5700000000001	0	n/a	247543	KeyDown	41324	4	Index	21
412.8900000000000	0	n/a	247735	KeyDown	41324	4	Index	21
413.3083333333333	0	n/a	247986	KeyDown	41324	1	Little	21
414.3183333333334	0	n/a	248592	KeyDown	41324	3	Middle	21
414.6666666666667	0	n/a	248801	KeyDown	41324	2	Ring	21
415.0016666666667	0	n/a	249002	KeyDown	41324	4	Index	21
415.3100000000000	0	n/a	249187	KeyDown	41324	4	Index	21
415.6033333333334	0	n/a	249363	KeyDown	41324	1	Little	21
416.0433333333334	0	n/a	249627	KeyDown	41324	3	Middle	21
416.1300000000001	0	n/a	249679	StopPractice	41324	n/a	n/a	21
416.1316666666667	0	n/a	249680	StartRest	XXXXX	n/a	n/a	21
426.1650000000000	0	n/a	255700	StopRest	XXXXX	n/a	n/a	21
426.1666666666667	0	UPPT001	255701	StartPractice	41324	n/a	n/a	22
426.7400000000000	0	n/a	256045	KeyDown	41324	4	Index	22
427.0550000000000	0	n/a	256234	KeyDown	41324	1	Little	22
428.0000000000000	0	n/a	256801	KeyDown	41324	3	Middle	22
428.3266666666667	0	n/a	256997	KeyDown	41324	2	Ring	22
428.6933333333334	0	n/a	257217	KeyDown	41324	4	Index	22
429.6800000000000	0	n/a	257809	KeyDown	41324	4	Index	22
430.1916666666667	0	n/a	258116	KeyDown	41324	1	Little	22
430.7933333333334	0	n/a	258477	KeyDown	41324	3	Middle	22
431.1983333333334	0	n/a	258720	KeyDown	41324	2	Ring	22
431.6450000000000	0	n/a	258988	KeyDown	41324	4	Index	22
432.8983333333334	0	n/a	259740	KeyDown	41324	4	Index	22
433.2816666666667	0	n/a	259970	KeyDown	41324	1	Little	22
434.1400000000000	0	n/a	260485	KeyDown	41324	3	Middle	22
434.6300000000001	0	n/a	260779	KeyDown	41324	2	Ring	22
434.9800000000000	0	n/a	260989	KeyDown	41324	4	Index	22
435.3750000000000	0	n/a	261226	KeyDown	41324	4	Index	22
435.7000000000000	0	n/a	261421	KeyDown	41324	1	Little	22
436.2050000000000	0	n/a	261724	StopPractice	41324	n/a	n/a	22
436.2066666666667	0	n/a	261725	StartRest	XXXXX	n/a	n/a	22
446.2400000000000	0	n/a	267745	StopRest	XXXXX	n/a	n/a	22
446.2416666666667	0	UPPT001	267746	StartPractice	41324	n/a	n/a	23
446.9766666666667	0	n/a	268187	KeyDown	41324	4	Index	23
447.2800000000000	0	n/a	268369	KeyDown	41324	1	Little	23
447.9633333333334	0	n/a	268779	KeyDown	41324	3	Middle	23
448.3500000000000	0	n/a	269011	KeyDown	41324	2	Ring	23
448.6833333333333	0	n/a	269211	KeyDown	41324	4	Index	23
449.3500000000000	0	n/a	269611	KeyDown	41324	4	Index	23
450.1400000000000	0	n/a	270085	KeyDown	41324	1	Little	23
451.1583333333334	0	n/a	270696	KeyDown	41324	3	Middle	23
451.6383333333334	0	n/a	270984	KeyDown	41324	2	Ring	23
452.0183333333334	0	n/a	271212	KeyDown	41324	4	Index	23
452.8250000000000	0	n/a	271696	KeyDown	41324	4	Index	23
453.4400000000001	0	n/a	272065	KeyDown	41324	1	Little	23
453.8900000000000	0	n/a	272335	KeyDown	41324	3	Middle	23
454.2433333333333	0	n/a	272547	KeyDown	41324	2	Ring	23
454.6133333333333	0	n/a	272769	KeyDown	41324	4	Index	23
454.9000000000000	0	n/a	272941	KeyDown	41324	4	Index	23
455.2600000000000	0	n/a	273157	KeyDown	41324	1	Little	23
455.8133333333334	0	n/a	273489	KeyDown	41324	3	Middle	23
456.1183333333333	0	n/a	273672	KeyDown	41324	2	Ring	23
456.2800000000000	0	n/a	273769	StopPractice	41324	n/a	n/a	23
456.2816666666667	0	n/a	273770	StartRest	XXXXX	n/a	n/a	23
466.3150000000001	0	n/a	279790	StopRest	XXXXX	n/a	n/a	23
466.3166666666667	0	UPPT001	279791	StartPractice	41324	n/a	n/a	24
466.8083333333333	0	n/a	280086	KeyDown	41324	4	Index	24
467.1016666666667	0	n/a	280262	KeyDown	41324	1	Little	24
467.3916666666667	0	n/a	280436	KeyDown	41324	3	Middle	24
467.6950000000001	0	n/a	280618	KeyDown	41324	2	Ring	24
468.0516666666667	0	n/a	280832	KeyDown	41324	4	Index	24
468.5066666666667	0	n/a	281105	KeyDown	41324	4	Index	24
469.0183333333334	0	n/a	281412	KeyDown	41324	1	Little	24
469.5233333333334	0	n/a	281715	KeyDown	41324	3	Middle	24
469.9800000000000	0	n/a	281989	KeyDown	41324	2	Ring	24
470.9033333333334	0	n/a	282543	KeyDown	41324	4	Index	24
471.5416666666667	0	n/a	282926	KeyDown	41324	4	Index	24
471.8116666666667	0	n/a	283088	KeyDown	41324	1	Little	24
472.4033333333334	0	n/a	283443	KeyDown	41324	3	Middle	24
472.7483333333334	0	n/a	283650	KeyDown	41324	2	Ring	24
473.1633333333334	0	n/a	283899	KeyDown	41324	4	Index	24
473.4700000000000	0	n/a	284083	KeyDown	41324	4	Index	24
473.7633333333334	0	n/a	284259	KeyDown	41324	1	Little	24
474.7583333333334	0	n/a	284856	KeyDown	41324	3	Middle	24
475.0333333333334	0	n/a	285021	KeyDown	41324	2	Ring	24
475.2383333333333	0	n/a	285144	KeyDown	41324	4	Index	24
475.2816666666667	0	n/a	285170	KeyDown	41324	4	Index	24
476.3550000000000	0	n/a	285814	StopPractice	41324	n/a	n/a	24
476.3566666666667	0	n/a	285815	StartRest	XXXXX	n/a	n/a	24
486.3883333333334	0	n/a	291834	StopRest	XXXXX	n/a	n/a	24
486.3900000000000	0	UPPT001	291835	StartPractice	41324	n/a	n/a	25
487.0300000000000	0	n/a	292219	KeyDown	41324	4	Index	25
487.3133333333334	0	n/a	292389	KeyDown	41324	1	Little	25
487.7316666666667	0	n/a	292640	KeyDown	41324	3	Middle	25
488.0033333333334	0	n/a	292803	KeyDown	41324	2	Ring	25
488.2683333333334	0	n/a	292962	KeyDown	41324	4	Index	25
488.5366666666667	0	n/a	293123	KeyDown	41324	4	Index	25
488.9316666666667	0	n/a	293360	KeyDown	41324	1	Little	25
489.3333333333334	0	n/a	293601	KeyDown	41324	3	Middle	25
489.6366666666667	0	n/a	293783	KeyDown	41324	2	Ring	25
489.9650000000000	0	n/a	293980	KeyDown	41324	4	Index	25
490.2883333333334	0	n/a	294174	KeyDown	41324	4	Index	25
490.7516666666667	0	n/a	294452	KeyDown	41324	1	Little	25
491.3816666666667	0	n/a	294830	KeyDown	41324	3	Middle	25
491.8266666666667	0	n/a	295097	KeyDown	41324	2	Ring	25
492.2733333333334	0	n/a	295365	KeyDown	41324	4	Index	25
492.5916666666667	0	n/a	295556	KeyDown	41324	4	Index	25
492.8983333333334	0	n/a	295740	KeyDown	41324	1	Little	25
493.4666666666667	0	n/a	296081	KeyDown	41324	3	Middle	25
493.7216666666667	0	n/a	296234	KeyDown	41324	2	Ring	25
494.0883333333334	0	n/a	296454	KeyDown	41324	4	Index	25
494.7866666666667	0	n/a	296873	KeyDown	41324	4	Index	25
495.1100000000000	0	n/a	297067	KeyDown	41324	1	Little	25
495.8283333333334	0	n/a	297498	KeyDown	41324	3	Middle	25
496.1133333333333	0	n/a	297669	KeyDown	41324	2	Ring	25
496.3616666666667	0	n/a	297818	KeyDown	41324	4	Index	25
496.4283333333333	0	n/a	297858	StopPractice	41324	n/a	n/a	25
496.4300000000000	0	n/a	297859	StartRest	XXXXX	n/a	n/a	25
506.4650000000000	0	n/a	303880	StopRest	XXXXX	n/a	n/a	25
506.4666666666667	0	UPPT001	303881	StartPractice	41324	n/a	n/a	26
507.0566666666667	0	n/a	304235	KeyDown	41324	4	Index	26
507.3483333333334	0	n/a	304410	KeyDown	41324	1	Little	26
507.7833333333334	0	n/a	304671	KeyDown	41324	3	Middle	26
508.4400000000001	0	n/a	305065	KeyDown	41324	2	Ring	26
508.9383333333334	0	n/a	305364	KeyDown	41324	4	Index	26
509.5366666666667	0	n/a	305723	KeyDown	41324	4	Index	26
509.8350000000000	0	n/a	305902	KeyDown	41324	1	Little	26
510.2833333333334	0	n/a	306171	KeyDown	41324	3	Middle	26
510.6983333333334	0	n/a	306420	KeyDown	41324	2	Ring	26
511.1850000000001	0	n/a	306712	KeyDown	41324	4	Index	26
512.1233333333333	0	n/a	307275	KeyDown	41324	4	Index	26
512.4600000000000	0	n/a	307477	KeyDown	41324	1	Little	26
512.9550000000000	0	n/a	307774	KeyDown	41324	3	Middle	26
513.2333333333333	0	n/a	307941	KeyDown	41324	2	Ring	26
513.5433333333334	0	n/a	308127	KeyDown	41324	4	Index	26
514.6233333333333	0	n/a	308775	KeyDown	41324	4	Index	26
514.9383333333334	0	n/a	308964	KeyDown	41324	1	Little	26
515.4400000000001	0	n/a	309265	KeyDown	41324	3	Middle	26
515.7083333333334	0	n/a	309426	KeyDown	41324	2	Ring	26
515.9500000000000	0	n/a	309571	KeyDown	41324	4	Index	26
516.5050000000000	0	n/a	309904	StopPractice	41324	n/a	n/a	26
516.5066666666667	0	n/a	309905	StartRest	XXXXX	n/a	n/a	26
526.5383333333334	0	n/a	315924	StopRest	XXXXX	n/a	n/a	26
526.5400000000001	0	UPPT001	315925	StartPractice	41324	n/a	n/a	27
527.3233333333334	0	n/a	316395	KeyDown	41324	4	Index	27
527.6550000000001	0	n/a	316594	KeyDown	41324	1	Little	27
528.1233333333333	0	n/a	316875	KeyDown	41324	3	Middle	27
528.4600000000000	0	n/a	317077	KeyDown	41324	2	Ring	27
528.8116666666667	0	n/a	317288	KeyDown	41324	4	Index	27
529.3166666666667	0	n/a	317591	KeyDown	41324	4	Index	27
530.0866666666667	0	n/a	318053	KeyDown	41324	1	Little	27
530.5516666666667	0	n/a	318332	KeyDown	41324	3	Middle	27
530.8083333333334	0	n/a	318486	KeyDown	41324	2	Ring	27
531.1616666666667	0	n/a	318698	KeyDown	41324	4	Index	27
531.8316666666667	0	n/a	319100	KeyDown	41324	4	Index	27
532.4083333333334	0	n/a	319446	KeyDown	41324	1	Little	27
533.0766666666667	0	n/a	319847	KeyDown	41324	3	Middle	27
533.4583333333334	0	n/a	320076	KeyDown	41324	2	Ring	27
533.9100000000001	0	n/a	320347	KeyDown	41324	4	Index	27
534.4916666666667	0	n/a	320696	KeyDown	41324	4	Index	27
534.8100000000001	0	n/a	320887	KeyDown	41324	1	Little	27
535.9483333333334	0	n/a	321570	KeyDown	41324	3	Middle	27
536.2083333333334	0	n/a	321726	KeyDown	41324	2	Ring	27
536.5783333333334	0	n/a	321948	StopPractice	41324	n/a	n/a	27
536.5800000000000	0	n/a	321949	StartRest	XXXXX	n/a	n/a	27
546.6133333333333	0	n/a	327969	StopRest	XXXXX	n/a	n/a	27
546.6150000000000	0	UPPT001	327970	StartPractice	41324	n/a	n/a	28
547.2533333333333	0	n/a	328353	KeyDown	41324	4	Index	28
547.7316666666667	0	n/a	328640	KeyDown	41324	1	Little	28
548.1383333333333	0	n/a	328884	KeyDown	41324	3	Middle	28
548.4683333333334	0	n/a	329082	KeyDown	41324	2	Ring	28
548.8333333333334	0	n/a	329301	KeyDown	41324	4	Index	28
550.3316666666667	0	n/a	330200	KeyDown	41324	4	Index	28
550.6966666666667	0	n/a	330419	KeyDown	41324	1	Little	28
551.2583333333333	0	n/a	330756	KeyDown	41324	3	Middle	28
552.9816666666667	0	n/a	331790	KeyDown	41324	2	Ring	28
553.6283333333333	0	n/a	332178	KeyDown	41324	4	Index	28
554.0516666666667	0	n/a	332432	KeyDown	41324	4	Index	28
554.7566666666667	0	n/a	332855	KeyDown	41324	1	Little	28
555.5333333333334	0	n/a	333321	KeyDown	41324	4	Index	28
556.2166666666667	0	n/a	333731	KeyDown	41324	3	Middle	28
556.6083333333333	0	n/a	333966	KeyDown	41324	2	Ring	28
556.6533333333334	0	n/a	333993	StopPractice	41324	n/a	n/a	28
556.6550000000001	0	n/a	333994	StartRest	XXXXX	n/a	n/a	28
566.6883333333334	0	n/a	340014	StopRest	XXXXX	n/a	n/a	28
566.6900000000001	0	UPPT001	340015	StartPractice	41324	n/a	n/a	29
567.4233333333334	0	n/a	340455	KeyDown	41324	4	Index	29
568.1083333333333	0	n/a	340866	KeyDown	41324	1	Little	29
568.5383333333334	0	n/a	341124	KeyDown	41324	3	Middle	29
568.9283333333334	0	n/a	341358	KeyDown	41324	2	Ring	29
569.2950000000001	0	n/a	341578	KeyDown	41324	4	Index	29
569.7833333333334	0	n/a	341871	KeyDown	41324	4	Index	29
570.4300000000001	0	n/a	342259	KeyDown	41324	1	Little	29
571.0200000000000	0	n/a	342613	KeyDown	41324	3	Middle	29
571.3533333333334	0	n/a	342813	KeyDown	41324	2	Ring	29
571.6633333333334	0	n/a	342999	KeyDown	41324	4	Index	29
571.9883333333333	0	n/a	343194	KeyDown	41324	4	Index	29
572.4650000000000	0	n/a	343480	KeyDown	41324	1	Little	29
572.9683333333334	0	n/a	343782	KeyDown	41324	3	Middle	29
573.4150000000001	0	n/a	344050	KeyDown	41324	2	Ring	29
573.7833333333334	0	n/a	344271	KeyDown	41324	4	Index	29
574.0766666666667	0	n/a	344447	KeyDown	41324	4	Index	29
574.5016666666667	0	n/a	344702	KeyDown	41324	1	Little	29
575.2616666666667	0	n/a	345158	KeyDown	41324	3	Middle	29
575.6516666666668	0	n/a	345392	KeyDown	41324	2	Ring	29
575.9666666666667	0	n/a	345581	KeyDown	41324	4	Index	29
576.7283333333334	0	n/a	346038	StopPractice	41324	n/a	n/a	29
576.7300000000000	0	n/a	346039	StartRest	XXXXX	n/a	n/a	29
586.7633333333333	0	n/a	352059	StopRest	XXXXX	n/a	n/a	29
586.7650000000000	0	UPPT001	352060	StartPractice	41324	n/a	n/a	30
587.3466666666667	0	n/a	352409	KeyDown	41324	4	Index	30
587.6733333333334	0	n/a	352605	KeyDown	41324	1	Little	30
588.4366666666667	0	n/a	353063	KeyDown	41324	3	Middle	30
588.8083333333334	0	n/a	353286	KeyDown	41324	2	Ring	30
589.2183333333334	0	n/a	353532	KeyDown	41324	4	Index	30
589.9583333333334	0	n/a	353976	KeyDown	41324	4	Index	30
590.4716666666667	0	n/a	354284	KeyDown	41324	1	Little	30
591.7966666666667	0	n/a	355079	KeyDown	41324	3	Middle	30
592.1983333333334	0	n/a	355320	KeyDown	41324	2	Ring	30
592.5200000000000	0	n/a	355513	KeyDown	41324	4	Index	30
593.2100000000000	0	n/a	355927	KeyDown	41324	1	Little	30
596.8033333333334	0	n/a	358083	StopPractice	41324	n/a	n/a	30
596.8050000000001	0	n/a	358084	StartRest	XXXXX	n/a	n/a	30
606.8383333333334	0	n/a	364104	StopRest	XXXXX	n/a	n/a	30
606.8400000000000	0	UPPT001	364105	StartPractice	41324	n/a	n/a	31
608.3750000000000	0	n/a	365026	KeyDown	41324	4	Index	31
608.6916666666667	0	n/a	365216	KeyDown	41324	1	Little	31
609.5083333333333	0	n/a	365706	KeyDown	41324	3	Middle	31
609.8866666666667	0	n/a	365933	KeyDown	41324	2	Ring	31
610.2816666666668	0	n/a	366170	KeyDown	41324	4	Index	31
610.6883333333334	0	n/a	366414	KeyDown	41324	4	Index	31
611.7583333333333	0	n/a	367056	KeyDown	41324	1	Little	31
612.4133333333334	0	n/a	367449	KeyDown	41324	3	Middle	31
613.1533333333334	0	n/a	367893	KeyDown	41324	2	Ring	31
613.7100000000000	0	n/a	368227	KeyDown	41324	4	Index	31
614.1500000000001	0	n/a	368491	KeyDown	41324	4	Index	31
614.7633333333333	0	n/a	368859	KeyDown	41324	1	Little	31
615.5950000000000	0	n/a	369358	KeyDown	41324	3	Middle	31
615.9650000000000	0	n/a	369580	KeyDown	41324	2	Ring	31
616.3166666666667	0	n/a	369791	KeyDown	41324	4	Index	31
616.6033333333334	0	n/a	369963	KeyDown	41324	4	Index	31
616.8783333333333	0	n/a	370128	StopPractice	41324	n/a	n/a	31
616.8800000000000	0	n/a	370129	StartRest	XXXXX	n/a	n/a	31
626.9133333333334	0	n/a	376149	StopRest	XXXXX	n/a	n/a	31
626.9150000000001	0	UPPT001	376150	StartPractice	41324	n/a	n/a	32
628.4350000000001	0	n/a	377062	KeyDown	41324	4	Index	32
628.8133333333334	0	n/a	377289	KeyDown	41324	1	Little	32
629.2566666666667	0	n/a	377555	KeyDown	41324	3	Middle	32
631.0266666666668	0	n/a	378617	KeyDown	41324	2	Ring	32
631.5433333333334	0	n/a	378927	KeyDown	41324	4	Index	32
631.8000000000001	0	n/a	379081	KeyDown	41324	4	Index	32
632.2533333333333	0	n/a	379353	KeyDown	41324	1	Little	32
632.8133333333334	0	n/a	379689	KeyDown	41324	3	Middle	32
633.1950000000001	0	n/a	379918	KeyDown	41324	2	Ring	32
633.5350000000001	0	n/a	380122	KeyDown	41324	4	Index	32
633.8250000000000	0	n/a	380296	KeyDown	41324	4	Index	32
634.3400000000000	0	n/a	380605	KeyDown	41324	1	Little	32
636.1416666666667	0	n/a	381686	KeyDown	41324	3	Middle	32
636.4783333333334	0	n/a	381888	KeyDown	41324	2	Ring	32
636.9283333333334	0	n/a	382158	KeyDown	41324	4	Index	32
636.9533333333334	0	n/a	382173	StopPractice	41324	n/a	n/a	32
636.9550000000000	0	n/a	382174	StartRest	XXXXX	n/a	n/a	32
646.9883333333333	0	n/a	388194	StopRest	XXXXX	n/a	n/a	32
646.9900000000000	0	UPPT001	388195	StartPractice	41324	n/a	n/a	33
648.2633333333333	0	n/a	388959	KeyDown	41324	4	Index	33
648.5483333333334	0	n/a	389130	KeyDown	41324	1	Little	33
648.9583333333334	0	n/a	389376	KeyDown	41324	3	Middle	33
649.3083333333334	0	n/a	389586	KeyDown	41324	2	Ring	33
649.6883333333334	0	n/a	389814	KeyDown	41324	4	Index	33
650.1316666666667	0	n/a	390080	KeyDown	41324	4	Index	33
650.9250000000001	0	n/a	390556	KeyDown	41324	1	Little	33
651.8483333333334	0	n/a	391110	KeyDown	41324	3	Middle	33
652.2383333333333	0	n/a	391344	KeyDown	41324	2	Ring	33
652.7900000000001	0	n/a	391675	KeyDown	41324	4	Index	33
653.1216666666667	0	n/a	391874	KeyDown	41324	4	Index	33
653.5633333333334	0	n/a	392139	KeyDown	41324	1	Little	33
654.8683333333333	0	n/a	392922	KeyDown	41324	3	Middle	33
655.2033333333334	0	n/a	393123	KeyDown	41324	2	Ring	33
655.5433333333334	0	n/a	393327	KeyDown	41324	4	Index	33
655.8316666666667	0	n/a	393500	KeyDown	41324	4	Index	33
656.2233333333334	0	n/a	393735	KeyDown	41324	1	Little	33
657.0283333333334	0	n/a	394218	StopPractice	41324	n/a	n/a	33
657.0300000000001	0	n/a	394219	StartRest	XXXXX	n/a	n/a	33
667.0633333333334	0	n/a	400239	StopRest	XXXXX	n/a	n/a	33
667.0650000000001	0	UPPT001	400240	StartPractice	41324	n/a	n/a	34
668.2400000000000	0	n/a	400945	KeyDown	41324	4	Index	34
668.4433333333334	0	n/a	401067	KeyDown	41324	4	Index	34
668.8050000000001	0	n/a	401284	KeyDown	41324	1	Little	34
669.3933333333334	0	n/a	401637	KeyDown	41324	3	Middle	34
669.7116666666667	0	n/a	401828	KeyDown	41324	2	Ring	34
670.0250000000001	0	n/a	402016	KeyDown	41324	4	Index	34
670.3083333333334	0	n/a	402186	KeyDown	41324	4	Index	34
670.7783333333334	0	n/a	402468	KeyDown	41324	1	Little	34
671.6316666666667	0	n/a	402980	KeyDown	41324	3	Middle	34
672.0100000000000	0	n/a	403207	KeyDown	41324	2	Ring	34
672.5383333333334	0	n/a	403524	KeyDown	41324	4	Index	34
672.8083333333334	0	n/a	403686	KeyDown	41324	4	Index	34
673.1383333333333	0	n/a	403884	KeyDown	41324	1	Little	34
673.7133333333334	0	n/a	404229	KeyDown	41324	3	Middle	34
674.0950000000000	0	n/a	404458	KeyDown	41324	2	Ring	34
674.4500000000000	0	n/a	404671	KeyDown	41324	4	Index	34
674.9416666666667	0	n/a	404966	KeyDown	41324	4	Index	34
675.3433333333334	0	n/a	405207	KeyDown	41324	1	Little	34
676.0516666666667	0	n/a	405632	KeyDown	41324	3	Middle	34
676.4500000000000	0	n/a	405871	KeyDown	41324	2	Ring	34
676.8050000000001	0	n/a	406084	KeyDown	41324	4	Index	34
677.1033333333334	0	n/a	406263	StopPractice	41324	n/a	n/a	34
677.1050000000000	0	n/a	406264	StartRest	XXXXX	n/a	n/a	34
687.1366666666667	0	n/a	412283	StopRest	XXXXX	n/a	n/a	34
687.1383333333333	0	UPPT001	412284	StartPractice	41324	n/a	n/a	35
687.9150000000001	0	n/a	412750	KeyDown	41324	4	Index	35
688.5516666666667	0	n/a	413132	KeyDown	41324	1	Little	35
688.9633333333334	0	n/a	413379	KeyDown	41324	3	Middle	35
689.3316666666667	0	n/a	413600	KeyDown	41324	2	Ring	35
689.7783333333334	0	n/a	413868	KeyDown	41324	4	Index	35
690.0583333333334	0	n/a	414036	KeyDown	41324	4	Index	35
690.4666666666667	0	n/a	414281	KeyDown	41324	1	Little	35
691.3833333333333	0	n/a	414831	KeyDown	41324	3	Middle	35
691.7433333333333	0	n/a	415047	KeyDown	41324	2	Ring	35
692.0866666666667	0	n/a	415253	KeyDown	41324	4	Index	35
692.6916666666667	0	n/a	415616	KeyDown	41324	4	Index	35
693.3216666666667	0	n/a	415994	KeyDown	41324	1	Little	35
694.3016666666667	0	n/a	416582	KeyDown	41324	3	Middle	35
694.7216666666667	0	n/a	416834	KeyDown	41324	2	Ring	35
695.0450000000001	0	n/a	417028	KeyDown	41324	4	Index	35
695.4066666666668	0	n/a	417245	KeyDown	41324	4	Index	35
695.7533333333333	0	n/a	417453	KeyDown	41324	1	Little	35
696.2466666666667	0	n/a	417749	KeyDown	41324	3	Middle	35
696.5700000000001	0	n/a	417943	KeyDown	41324	2	Ring	35
696.9166666666667	0	n/a	418151	KeyDown	41324	4	Index	35
697.1766666666667	0	n/a	418307	StopPractice	41324	n/a	n/a	35
697.1783333333334	0	n/a	418308	StartRest	XXXXX	n/a	n/a	35
707.2133333333334	0	n/a	424329	StopRest	XXXXX	n/a	n/a	35
707.2150000000000	0	UPPT001	424330	StartPractice	41324	n/a	n/a	36
708.0916666666667	0	n/a	424856	KeyDown	41324	4	Index	36
708.4116666666667	0	n/a	425048	KeyDown	41324	1	Little	36
708.8116666666667	0	n/a	425288	KeyDown	41324	3	Middle	36
709.1333333333333	0	n/a	425481	KeyDown	41324	2	Ring	36
709.4383333333334	0	n/a	425664	KeyDown	41324	4	Index	36
709.7433333333333	0	n/a	425847	KeyDown	41324	4	Index	36
710.0700000000001	0	n/a	426043	KeyDown	41324	1	Little	36
710.8800000000000	0	n/a	426529	KeyDown	41324	3	Middle	36
711.1666666666667	0	n/a	426701	KeyDown	41324	2	Ring	36
711.4950000000000	0	n/a	426898	KeyDown	41324	4	Index	36
711.7583333333333	0	n/a	427056	KeyDown	41324	4	Index	36
712.0716666666667	0	n/a	427244	KeyDown	41324	1	Little	36
712.7633333333334	0	n/a	427659	KeyDown	41324	3	Middle	36
713.0716666666667	0	n/a	427844	KeyDown	41324	2	Ring	36
713.4800000000000	0	n/a	428089	KeyDown	41324	4	Index	36
713.9933333333333	0	n/a	428397	KeyDown	41324	4	Index	36
714.3583333333333	0	n/a	428616	KeyDown	41324	1	Little	36
714.9533333333334	0	n/a	428973	KeyDown	41324	3	Middle	36
715.3166666666667	0	n/a	429191	KeyDown	41324	2	Ring	36
715.6816666666667	0	n/a	429410	KeyDown	41324	4	Index	36
716.1916666666667	0	n/a	429716	KeyDown	41324	4	Index	36
716.4833333333333	0	n/a	429891	KeyDown	41324	1	Little	36
717.2066666666667	0	n/a	430325	KeyDown	41324	3	Middle	36
717.2533333333333	0	n/a	430353	StopPractice	41324	n/a	n/a	36
717.2550000000000	0	n/a	430354	StartRest	XXXXX	n/a	n/a	36
727.2900000000001	0	n/a	436375	StopRest	XXXXX	n/a	n/a	36
