onset	duration	channel	onset_sample_idx	event_type	target_sequence	keypress_id	finger_label	trial_number
15.2100000000000	0	UPPT001	9127	StartPractice	41324	n/a	n/a	1
16.1183333333333	0	n/a	9672	KeyDown	41324	4	Index	1
17.1116666666667	0	n/a	10268	KeyDown	41324	1	Little	1
18.2866666666667	0	n/a	10973	KeyDown	41324	3	Middle	1
18.8283333333333	0	n/a	11298	KeyDown	41324	2	Ring	1
19.3700000000000	0	n/a	11623	KeyDown	41324	4	Index	1
22.6133333333333	0	n/a	13569	KeyDown	41324	4	Index	1
23.0383333333333	0	n/a	13824	KeyDown	41324	1	Little	1
25.1466666666667	0	n/a	15089	KeyDown	41324	3	Middle	1
25.2483333333333	0	n/a	15150	StopPractice	41324	n/a	n/a	1
25.2500000000000	0	n/a	15151	StartRest	XXXXX	n/a	n/a	1
35.2816666666667	0	n/a	21170	StopRest	XXXXX	n/a	n/a	1
35.2833333333333	0	UPPT001	21171	StartPractice	41324	n/a	n/a	2
36.0650000000000	0	n/a	21640	KeyDown	41324	4	Index	2
37.0866666666667	0	n/a	22253	KeyDown	41324	1	Little	2
37.8750000000000	0	n/a	22726	KeyDown	41324	2	Ring	2
38.5166666666667	0	n/a	23111	KeyDown	41324	3	Middle	2
38.8700000000000	0	n/a	23323	KeyDown	41324	4	Index	2
40.7766666666667	0	n/a	24467	KeyDown	41324	4	Index	2
41.1883333333333	0	n/a	24714	KeyDown	41324	1	Little	2
43.2766666666667	0	n/a	25967	KeyDown	41324	2	Ring	2
44.6216666666667	0	n/a	26774	KeyDown	41324	3	Middle	2
45.3216666666667	0	n/a	27194	StopPractice	41324	n/a	n/a	2
45.3233333333333	0	n/a	27195	StartRest	XXXXX	n/a	n/a	2
55.3566666666667	0	n/a	33215	StopRest	XXXXX	n/a	n/a	2
55.3583333333333	0	UPPT001	33216	StartPractice	41324	n/a	n/a	3
57.1400000000000	0	n/a	34285	KeyDown	41324	4	Index	3
58.0916666666667	0	n/a	34856	KeyDown	41324	1	Little	3
60.5966666666667	0	n/a	36359	KeyDown	41324	3	Middle	3
61.7700000000000	0	n/a	37063	KeyDown	41324	2	Ring	3
62.7050000000000	0	n/a	37624	KeyDown	41324	4	Index	3
64.4350000000000	0	n/a	38662	KeyDown	41324	4	Index	3
64.9050000000000	0	n/a	38944	KeyDown	41324	1	Little	3
65.3966666666667	0	n/a	39239	StopPractice	41324	n/a	n/a	3
65.3983333333333	0	n/a	39240	StartRest	XXXXX	n/a	n/a	3
75.4316666666667	0	n/a	45260	StopRest	XXXXX	n/a	n/a	3
75.4333333333333	0	UPPT001	45261	StartPractice	41324	n/a	n/a	4
76.2933333333333	0	n/a	45777	KeyDown	41324	4	Index	4
76.6966666666667	0	n/a	46019	KeyDown	41324	1	Little	4
77.3316666666667	0	n/a	46400	KeyDown	41324	3	Middle	4
77.6800000000000	0	n/a	46609	KeyDown	41324	2	Ring	4
77.9916666666667	0	n/a	46796	KeyDown	41324	4	Index	4
79.1216666666667	0	n/a	47474	KeyDown	41324	4	Index	4
79.4283333333333	0	n/a	47658	KeyDown	41324	1	Little	4
80.5700000000000	0	n/a	48343	KeyDown	41324	3	Middle	4
81.6316666666667	0	n/a	48980	KeyDown	41324	2	Ring	4
81.8850000000000	0	n/a	49132	KeyDown	41324	4	Index	4
83.2966666666667	0	n/a	49979	KeyDown	41324	4	Index	4
83.5983333333333	0	n/a	50160	KeyDown	41324	1	Little	4
83.9466666666667	0	n/a	50369	KeyDown	41324	3	Middle	4
84.2150000000000	0	n/a	50530	KeyDown	41324	2	Ring	4
84.5516666666667	0	n/a	50732	KeyDown	41324	4	Index	4
85.4716666666667	0	n/a	51284	StopPractice	41324	n/a	n/a	4
85.4733333333333	0	n/a	51285	StartRest	XXXXX	n/a	n/a	4
95.5066666666667	0	n/a	57305	StopRest	XXXXX	n/a	n/a	4
95.5083333333333	0	UPPT001	57306	StartPractice	41324	n/a	n/a	5
96.0066666666667	0	n/a	57605	KeyDown	41324	4	Index	5
96.4316666666667	0	n/a	57860	KeyDown	41324	1	Little	5
97.8633333333333	0	n/a	58719	KeyDown	41324	3	Middle	5
98.2066666666667	0	n/a	58925	KeyDown	41324	2	Ring	5
98.4566666666667	0	n/a	59075	KeyDown	41324	4	Index	5
99.1666666666667	0	n/a	59501	KeyDown	41324	4	Index	5
99.4600000000000	0	n/a	59677	KeyDown	41324	1	Little	5
100.7700000000000	0	n/a	60463	KeyDown	41324	3	Middle	5
101.0883333333333	0	n/a	60654	KeyDown	41324	2	Ring	5
101.3500000000000	0	n/a	60811	KeyDown	41324	4	Index	5
102.1566666666667	0	n/a	61295	KeyDown	41324	4	Index	5
102.3966666666667	0	n/a	61439	KeyDown	41324	1	Little	5
102.8250000000000	0	n/a	61696	KeyDown	41324	3	Middle	5
103.0816666666667	0	n/a	61850	KeyDown	41324	2	Ring	5
103.3333333333333	0	n/a	62001	KeyDown	41324	4	Index	5
105.1266666666667	0	n/a	63077	KeyDown	41324	4	Index	5
105.4016666666667	0	n/a	63242	KeyDown	41324	1	Little	5
105.5466666666667	0	n/a	63329	StopPractice	41324	n/a	n/a	5
105.5483333333333	0	n/a	63330	StartRest	XXXXX	n/a	n/a	5
115.5816666666667	0	n/a	69350	StopRest	XXXXX	n/a	n/a	5
115.5833333333333	0	UPPT001	69351	StartPractice	41324	n/a	n/a	6
116.2416666666667	0	n/a	69746	KeyDown	41324	4	Index	6
116.5416666666667	0	n/a	69926	KeyDown	41324	1	Little	6
117.5900000000000	0	n/a	70555	KeyDown	41324	3	Middle	6
117.8150000000000	0	n/a	70690	KeyDown	41324	2	Ring	6
118.0416666666667	0	n/a	70826	KeyDown	41324	4	Index	6
118.8016666666667	0	n/a	71282	KeyDown	41324	4	Index	6
119.0850000000000	0	n/a	71452	KeyDown	41324	1	Little	6
119.7816666666667	0	n/a	71870	KeyDown	41324	3	Middle	6
120.0466666666667	0	n/a	72029	KeyDown	41324	2	Ring	6
120.3000000000000	0	n/a	72181	KeyDown	41324	4	Index	6
120.8133333333333	0	n/a	72489	KeyDown	41324	4	Index	6
121.0266666666667	0	n/a	72617	KeyDown	41324	1	Little	6
121.9200000000000	0	n/a	73153	KeyDown	41324	3	Middle	6
122.1166666666667	0	n/a	73271	KeyDown	41324	2	Ring	6
122.3233333333333	0	n/a	73395	KeyDown	41324	4	Index	6
125.5033333333333	0	n/a	75303	KeyDown	41324	4	Index	6
125.6216666666667	0	n/a	75374	StopPractice	41324	n/a	n/a	6
125.6233333333333	0	n/a	75375	StartRest	XXXXX	n/a	n/a	6
135.6566666666667	0	n/a	81395	StopRest	XXXXX	n/a	n/a	6
135.6583333333333	0	UPPT001	81396	StartPractice	41324	n/a	n/a	7
136.2116666666667	0	n/a	81728	KeyDown	41324	4	Index	7
136.5250000000000	0	n/a	81916	KeyDown	41324	1	Little	7
137.0333333333333	0	n/a	82221	KeyDown	41324	3	Middle	7
137.2950000000000	0	n/a	82378	KeyDown	41324	2	Ring	7
137.5216666666667	0	n/a	82514	KeyDown	41324	4	Index	7
138.3516666666667	0	n/a	83012	KeyDown	41324	4	Index	7
138.6400000000000	0	n/a	83185	KeyDown	41324	1	Little	7
139.3200000000000	0	n/a	83593	KeyDown	41324	3	Middle	7
139.5416666666667	0	n/a	83726	KeyDown	41324	2	Ring	7
139.7766666666667	0	n/a	83867	KeyDown	41324	4	Index	7
140.3616666666667	0	n/a	84218	KeyDown	41324	4	Index	7
140.6616666666667	0	n/a	84398	KeyDown	41324	1	Little	7
141.2166666666667	0	n/a	84731	KeyDown	41324	3	Middle	7
141.4583333333333	0	n/a	84876	KeyDown	41324	2	Ring	7
141.6900000000000	0	n/a	85015	KeyDown	41324	4	Index	7
142.2416666666667	0	n/a	85346	KeyDown	41324	4	Index	7
142.5050000000000	0	n/a	85504	KeyDown	41324	1	Little	7
143.4750000000000	0	n/a	86086	KeyDown	41324	3	Middle	7
143.7266666666667	0	n/a	86237	KeyDown	41324	2	Ring	7
143.9650000000000	0	n/a	86380	KeyDown	41324	4	Index	7
144.5866666666667	0	n/a	86753	KeyDown	41324	4	Index	7
144.8800000000000	0	n/a	86929	KeyDown	41324	1	Little	7
145.4600000000000	0	n/a	87277	KeyDown	41324	3	Middle	7
145.6966666666667	0	n/a	87419	StopPractice	41324	n/a	n/a	7
145.6983333333334	0	n/a	87420	StartRest	XXXXX	n/a	n/a	7
155.7300000000000	0	n/a	93439	StopRest	XXXXX	n/a	n/a	7
155.7316666666667	0	UPPT001	93440	StartPractice	41324	n/a	n/a	8
156.4383333333333	0	n/a	93864	KeyDown	41324	4	Index	8
156.7783333333333	0	n/a	94068	KeyDown	41324	2	Ring	8
156.8050000000000	0	n/a	94084	KeyDown	41324	1	Little	8
160.0083333333334	0	n/a	96006	KeyDown	41324	2	Ring	8
160.2450000000000	0	n/a	96148	KeyDown	41324	4	Index	8
160.4400000000000	0	n/a	96265	KeyDown	41324	4	Index	8
161.1250000000000	0	n/a	96676	KeyDown	41324	4	Index	8
161.4333333333333	0	n/a	96861	KeyDown	41324	1	Little	8
162.0983333333334	0	n/a	97260	KeyDown	41324	3	Middle	8
162.3800000000000	0	n/a	97429	KeyDown	41324	2	Ring	8
162.5883333333333	0	n/a	97554	KeyDown	41324	4	Index	8
163.3100000000000	0	n/a	97987	KeyDown	41324	4	Index	8
163.5300000000000	0	n/a	98119	KeyDown	41324	1	Little	8
164.2083333333333	0	n/a	98526	KeyDown	41324	3	Middle	8
164.3850000000000	0	n/a	98632	KeyDown	41324	2	Ring	8
164.5783333333333	0	n/a	98748	KeyDown	41324	4	Index	8
165.1650000000000	0	n/a	99100	KeyDown	41324	4	Index	8
165.4266666666667	0	n/a	99257	KeyDown	41324	1	Little	8
165.7700000000000	0	n/a	99463	StopPractice	41324	n/a	n/a	8
165.7716666666667	0	n/a	99464	StartRest	XXXXX	n/a	n/a	8
175.8050000000000	0	n/a	105484	StopRest	XXXXX	n/a	n/a	8
175.8066666666667	0	UPPT001	105485	StartPractice	41324	n/a	n/a	9
176.2300000000000	0	n/a	105739	KeyDown	41324	4	Index	9
176.5533333333333	0	n/a	105933	KeyDown	41324	1	Little	9
176.8383333333333	0	n/a	106104	KeyDown	41324	3	Middle	9
177.0533333333333	0	n/a	106233	KeyDown	41324	2	Ring	9
177.2500000000000	0	n/a	106351	KeyDown	41324	4	Index	9
177.8250000000000	0	n/a	106696	KeyDown	41324	4	Index	9
178.0783333333333	0	n/a	106848	KeyDown	41324	1	Little	9
178.3600000000000	0	n/a	107017	KeyDown	41324	3	Middle	9
178.6283333333334	0	n/a	107178	KeyDown	41324	2	Ring	9
178.8800000000000	0	n/a	107329	KeyDown	41324	4	Index	9
180.0950000000000	0	n/a	108058	KeyDown	41324	4	Index	9
180.3233333333334	0	n/a	108195	KeyDown	41324	1	Little	9
180.6383333333333	0	n/a	108384	KeyDown	41324	3	Middle	9
180.9100000000000	0	n/a	108547	KeyDown	41324	2	Ring	9
181.1816666666667	0	n/a	108710	KeyDown	41324	4	Index	9
181.8033333333333	0	n/a	109083	KeyDown	41324	4	Index	9
182.0516666666667	0	n/a	109232	KeyDown	41324	1	Little	9
182.3200000000000	0	n/a	109393	KeyDown	41324	3	Middle	9
182.5433333333334	0	n/a	109527	KeyDown	41324	2	Ring	9
182.7333333333333	0	n/a	109641	KeyDown	41324	4	Index	9
183.2500000000000	0	n/a	109951	KeyDown	41324	4	Index	9
183.4983333333333	0	n/a	110100	KeyDown	41324	1	Little	9
183.8300000000000	0	n/a	110299	KeyDown	41324	3	Middle	9
184.0633333333333	0	n/a	110439	KeyDown	41324	2	Ring	9
184.2216666666667	0	n/a	110534	KeyDown	41324	4	Index	9
184.9616666666667	0	n/a	110978	KeyDown	41324	4	Index	9
185.1833333333333	0	n/a	111111	KeyDown	41324	1	Little	9
185.4700000000000	0	n/a	111283	KeyDown	41324	3	Middle	9
185.6800000000000	0	n/a	111409	KeyDown	41324	2	Ring	9
185.8450000000000	0	n/a	111508	StopPractice	41324	n/a	n/a	9
185.8466666666667	0	n/a	111509	StartRest	XXXXX	n/a	n/a	9
195.8800000000000	0	n/a	117529	StopRest	XXXXX	n/a	n/a	9
195.8816666666667	0	UPPT001	117530	StartPractice	41324	n/a	n/a	10
196.3400000000000	0	n/a	117805	KeyDown	41324	4	Index	10
196.6083333333333	0	n/a	117966	KeyDown	41324	1	Little	10
196.8616666666667	0	n/a	118118	KeyDown	41324	3	Middle	10
197.1033333333334	0	n/a	118263	KeyDown	41324	2	Ring	10
197.3100000000000	0	n/a	118387	KeyDown	41324	4	Index	10
197.6883333333333	0	n/a	118614	KeyDown	41324	4	Index	10
197.9333333333333	0	n/a	118761	KeyDown	41324	1	Little	10
198.1416666666667	0	n/a	118886	KeyDown	41324	3	Middle	10
198.3750000000000	0	n/a	119026	KeyDown	41324	2	Ring	10
198.5750000000000	0	n/a	119146	KeyDown	41324	4	Index	10
198.9950000000000	0	n/a	119398	KeyDown	41324	4	Index	10
199.2450000000000	0	n/a	119548	KeyDown	41324	1	Little	10
199.5383333333334	0	n/a	119724	KeyDown	41324	3	Middle	10
199.7716666666667	0	n/a	119864	KeyDown	41324	2	Ring	10
199.9783333333334	0	n/a	119988	KeyDown	41324	4	Index	10
200.3433333333333	0	n/a	120207	KeyDown	41324	4	Index	10
200.5950000000000	0	n/a	120358	KeyDown	41324	1	Little	10
200.8783333333334	0	n/a	120528	KeyDown	41324	3	Middle	10
201.1183333333333	0	n/a	120672	KeyDown	41324	2	Ring	10
201.3600000000000	0	n/a	120817	KeyDown	41324	4	Index	10
201.7033333333333	0	n/a	121023	KeyDown	41324	4	Index	10
201.9750000000000	0	n/a	121186	KeyDown	41324	1	Little	10
202.1900000000000	0	n/a	121315	KeyDown	41324	3	Middle	10
202.4416666666667	0	n/a	121466	KeyDown	41324	2	Ring	10
202.6383333333333	0	n/a	121584	KeyDown	41324	4	Index	10
203.0116666666667	0	n/a	121808	KeyDown	41324	4	Index	10
203.2616666666667	0	n/a	121958	KeyDown	41324	1	Little	10
203.5200000000000	0	n/a	122113	KeyDown	41324	3	Middle	10
203.7650000000000	0	n/a	122260	KeyDown	41324	2	Ring	10
203.9500000000000	0	n/a	122371	KeyDown	41324	4	Index	10
204.2383333333333	0	n/a	122544	KeyDown	41324	4	Index	10
204.4850000000000	0	n/a	122692	KeyDown	41324	3	Middle	10
204.7566666666667	0	n/a	122855	KeyDown	41324	2	Ring	10
205.7500000000000	0	n/a	123451	KeyDown	41324	1	Little	10
205.9200000000000	0	n/a	123553	StopPractice	41324	n/a	n/a	10
205.9216666666667	0	n/a	123554	StartRest	XXXXX	n/a	n/a	10
215.9566666666667	0	n/a	129575	StopRest	XXXXX	n/a	n/a	10
215.9583333333333	0	UPPT001	129576	StartPractice	41324	n/a	n/a	11
216.4116666666667	0	n/a	129848	KeyDown	41324	4	Index	11
216.7300000000000	0	n/a	130039	KeyDown	41324	1	Little	11
217.1100000000000	0	n/a	130267	KeyDown	41324	3	Middle	11
217.3500000000000	0	n/a	130411	KeyDown	41324	2	Ring	11
217.6000000000000	0	n/a	130561	KeyDown	41324	4	Index	11
218.0000000000000	0	n/a	130801	KeyDown	41324	4	Index	11
218.3016666666667	0	n/a	130982	KeyDown	41324	1	Little	11
218.5650000000000	0	n/a	131140	KeyDown	41324	3	Middle	11
218.8850000000000	0	n/a	131332	KeyDown	41324	2	Ring	11
219.1500000000000	0	n/a	131491	KeyDown	41324	4	Index	11
219.9266666666667	0	n/a	131957	KeyDown	41324	4	Index	11
220.2216666666667	0	n/a	132134	KeyDown	41324	1	Little	11
220.2566666666667	0	n/a	132155	KeyDown	41324	2	Ring	11
221.2266666666667	0	n/a	132737	KeyDown	41324	3	Middle	11
222.0233333333333	0	n/a	133215	KeyDown	41324	4	Index	11
222.3916666666667	0	n/a	133436	KeyDown	41324	1	Little	11
222.6516666666667	0	n/a	133592	KeyDown	41324	3	Middle	11
222.9050000000000	0	n/a	133744	KeyDown	41324	2	Ring	11
223.0700000000000	0	n/a	133843	KeyDown	41324	4	Index	11
223.4983333333333	0	n/a	134100	KeyDown	41324	4	Index	11
223.7550000000000	0	n/a	134254	KeyDown	41324	1	Little	11
223.9816666666667	0	n/a	134390	KeyDown	41324	3	Middle	11
224.2150000000000	0	n/a	134530	KeyDown	41324	2	Ring	11
224.4200000000000	0	n/a	134653	KeyDown	41324	4	Index	11
224.8083333333333	0	n/a	134886	KeyDown	41324	4	Index	11
225.0433333333334	0	n/a	135027	KeyDown	41324	1	Little	11
225.2966666666667	0	n/a	135179	KeyDown	41324	3	Middle	11
225.5616666666667	0	n/a	135338	KeyDown	41324	2	Ring	11
225.7650000000000	0	n/a	135460	KeyDown	41324	4	Index	11
225.9966666666667	0	n/a	135599	StopPractice	41324	n/a	n/a	11
225.9983333333333	0	n/a	135600	StartRest	XXXXX	n/a	n/a	11
236.0300000000000	0	n/a	141619	StopRest	XXXXX	n/a	n/a	11
236.0316666666667	0	UPPT001	141620	StartPractice	41324	n/a	n/a	12
236.4250000000000	0	n/a	141856	KeyDown	41324	4	Index	12
236.7600000000000	0	n/a	142057	KeyDown	41324	1	Little	12
237.1750000000000	0	n/a	142306	KeyDown	41324	3	Middle	12
237.3950000000000	0	n/a	142438	KeyDown	41324	2	Ring	12
237.6433333333333	0	n/a	142587	KeyDown	41324	4	Index	12
238.1533333333333	0	n/a	142893	KeyDown	41324	4	Index	12
238.4283333333333	0	n/a	143058	KeyDown	41324	1	Little	12
238.9150000000000	0	n/a	143350	KeyDown	41324	3	Middle	12
239.1533333333333	0	n/a	143493	KeyDown	41324	2	Ring	12
239.3800000000000	0	n/a	143629	KeyDown	41324	4	Index	12
239.7716666666667	0	n/a	143864	KeyDown	41324	4	Index	12
240.0100000000000	0	n/a	144007	KeyDown	41324	1	Little	12
240.3683333333333	0	n/a	144222	KeyDown	41324	3	Middle	12
240.5916666666667	0	n/a	144356	KeyDown	41324	2	Ring	12
240.8150000000000	0	n/a	144490	KeyDown	41324	4	Index	12
241.2800000000000	0	n/a	144769	KeyDown	41324	4	Index	12
241.5333333333334	0	n/a	144921	KeyDown	41324	1	Little	12
241.9583333333333	0	n/a	145176	KeyDown	41324	3	Middle	12
242.1750000000000	0	n/a	145306	KeyDown	41324	2	Ring	12
242.3733333333333	0	n/a	145425	KeyDown	41324	4	Index	12
242.7600000000000	0	n/a	145657	KeyDown	41324	4	Index	12
242.9766666666667	0	n/a	145787	KeyDown	41324	1	Little	12
243.2400000000000	0	n/a	145945	KeyDown	41324	3	Middle	12
243.4600000000000	0	n/a	146077	KeyDown	41324	2	Ring	12
243.6433333333333	0	n/a	146187	KeyDown	41324	4	Index	12
244.2850000000000	0	n/a	146572	KeyDown	41324	4	Index	12
244.6600000000000	0	n/a	146797	KeyDown	41324	1	Little	12
244.9750000000000	0	n/a	146986	KeyDown	41324	3	Middle	12
245.2133333333333	0	n/a	147129	KeyDown	41324	2	Ring	12
245.4016666666667	0	n/a	147242	KeyDown	41324	4	Index	12
245.8066666666667	0	n/a	147485	KeyDown	41324	4	Index	12
246.0300000000000	0	n/a	147619	KeyDown	41324	1	Little	12
246.0700000000000	0	n/a	147643	StopPractice	41324	n/a	n/a	12
246.0716666666667	0	n/a	147644	StartRest	XXXXX	n/a	n/a	12
256.1050000000000	0	n/a	153664	StopRest	XXXXX	n/a	n/a	12
256.1066666666667	0	UPPT001	153665	StartPractice	41324	n/a	n/a	13
256.5200000000000	0	n/a	153913	KeyDown	41324	4	Index	13
256.8016666666667	0	n/a	154082	KeyDown	41324	1	Little	13
257.0083333333333	0	n/a	154206	KeyDown	41324	3	Middle	13
257.1633333333334	0	n/a	154299	KeyDown	41324	3	Middle	13
257.3700000000000	0	n/a	154423	KeyDown	41324	2	Ring	13
257.6283333333333	0	n/a	154578	KeyDown	41324	4	Index	13
258.0483333333333	0	n/a	154830	KeyDown	41324	4	Index	13
258.3050000000000	0	n/a	154984	KeyDown	41324	1	Little	13
258.5200000000000	0	n/a	155113	KeyDown	41324	3	Middle	13
258.7683333333334	0	n/a	155262	KeyDown	41324	2	Ring	13
258.9850000000000	0	n/a	155392	KeyDown	41324	4	Index	13
259.2866666666667	0	n/a	155573	KeyDown	41324	4	Index	13
259.5133333333334	0	n/a	155709	KeyDown	41324	1	Little	13
259.7383333333333	0	n/a	155844	KeyDown	41324	3	Middle	13
259.9700000000000	0	n/a	155983	KeyDown	41324	2	Ring	13
260.1683333333334	0	n/a	156102	KeyDown	41324	4	Index	13
260.4450000000000	0	n/a	156268	KeyDown	41324	4	Index	13
260.6600000000000	0	n/a	156397	KeyDown	41324	1	Little	13
260.8833333333333	0	n/a	156531	KeyDown	41324	3	Middle	13
261.1083333333333	0	n/a	156666	KeyDown	41324	2	Ring	13
261.2966666666667	0	n/a	156779	KeyDown	41324	4	Index	13
261.5833333333334	0	n/a	156951	KeyDown	41324	4	Index	13
261.8333333333334	0	n/a	157101	KeyDown	41324	1	Little	13
262.0483333333333	0	n/a	157230	KeyDown	41324	3	Middle	13
262.2900000000000	0	n/a	157375	KeyDown	41324	2	Ring	13
262.4816666666667	0	n/a	157490	KeyDown	41324	4	Index	13
262.7900000000000	0	n/a	157675	KeyDown	41324	4	Index	13
263.0233333333334	0	n/a	157815	KeyDown	41324	3	Middle	13
263.9883333333333	0	n/a	158394	KeyDown	41324	1	Little	13
266.0550000000000	0	n/a	159634	KeyDown	41324	2	Ring	13
266.1450000000000	0	n/a	159688	StopPractice	41324	n/a	n/a	13
266.1466666666667	0	n/a	159689	StartRest	XXXXX	n/a	n/a	13
276.1800000000000	0	n/a	165709	StopRest	XXXXX	n/a	n/a	13
276.1816666666667	0	UPPT001	165710	StartPractice	41324	n/a	n/a	14
276.7783333333334	0	n/a	166068	KeyDown	41324	4	Index	14
277.0816666666667	0	n/a	166250	KeyDown	41324	1	Little	14
277.3733333333333	0	n/a	166425	KeyDown	41324	3	Middle	14
277.6666666666667	0	n/a	166601	KeyDown	41324	2	Ring	14
277.9616666666667	0	n/a	166778	KeyDown	41324	4	Index	14
278.3850000000000	0	n/a	167032	KeyDown	41324	4	Index	14
278.6716666666667	0	n/a	167204	KeyDown	41324	1	Little	14
279.0333333333334	0	n/a	167421	KeyDown	41324	3	Middle	14
279.2766666666667	0	n/a	167567	KeyDown	41324	2	Ring	14
279.5233333333334	0	n/a	167715	KeyDown	41324	4	Index	14
279.8850000000000	0	n/a	167932	KeyDown	41324	4	Index	14
280.1083333333333	0	n/a	168066	KeyDown	41324	1	Little	14
280.3450000000000	0	n/a	168208	KeyDown	41324	3	Middle	14
280.6133333333333	0	n/a	168369	KeyDown	41324	2	Ring	14
280.8466666666667	0	n/a	168509	KeyDown	41324	4	Index	14
281.2183333333334	0	n/a	168732	KeyDown	41324	4	Index	14
281.5133333333334	0	n/a	168909	KeyDown	41324	1	Little	14
282.0750000000000	0	n/a	169246	KeyDown	41324	3	Middle	14
282.2583333333333	0	n/a	169356	KeyDown	41324	2	Ring	14
282.4316666666667	0	n/a	169460	KeyDown	41324	4	Index	14
282.7733333333334	0	n/a	169665	KeyDown	41324	4	Index	14
283.0150000000000	0	n/a	169810	KeyDown	41324	1	Little	14
283.2866666666667	0	n/a	169973	KeyDown	41324	3	Middle	14
283.5033333333333	0	n/a	170103	KeyDown	41324	2	Ring	14
283.6866666666667	0	n/a	170213	KeyDown	41324	4	Index	14
284.2233333333334	0	n/a	170535	KeyDown	41324	4	Index	14
284.4483333333333	0	n/a	170670	KeyDown	41324	1	Little	14
284.7266666666667	0	n/a	170837	KeyDown	41324	3	Middle	14
284.9333333333333	0	n/a	170961	KeyDown	41324	2	Ring	14
285.1200000000000	0	n/a	171073	KeyDown	41324	4	Index	14
286.2200000000000	0	n/a	171733	StopPractice	41324	n/a	n/a	14
286.2216666666667	0	n/a	171734	StartRest	XXXXX	n/a	n/a	14
296.2533333333333	0	n/a	177753	StopRest	XXXXX	n/a	n/a	14
296.2550000000000	0	UPPT001	177754	StartPractice	41324	n/a	n/a	15
296.7166666666667	0	n/a	178031	KeyDown	41324	4	Index	15
297.0750000000000	0	n/a	178246	KeyDown	41324	1	Little	15
297.5166666666667	0	n/a	178511	KeyDown	41324	3	Middle	15
297.7033333333334	0	n/a	178623	KeyDown	41324	2	Ring	15
297.9216666666667	0	n/a	178754	KeyDown	41324	4	Index	15
298.2583333333333	0	n/a	178956	KeyDown	41324	4	Index	15
298.4683333333334	0	n/a	179082	KeyDown	41324	1	Little	15
298.6866666666667	0	n/a	179213	KeyDown	41324	3	Middle	15
298.8833333333333	0	n/a	179331	KeyDown	41324	2	Ring	15
299.0683333333333	0	n/a	179442	KeyDown	41324	4	Index	15
299.4016666666667	0	n/a	179642	KeyDown	41324	4	Index	15
299.9033333333334	0	n/a	179943	KeyDown	41324	1	Little	15
300.3316666666667	0	n/a	180200	KeyDown	41324	3	Middle	15
300.5550000000000	0	n/a	180334	KeyDown	41324	2	Ring	15
300.7433333333333	0	n/a	180447	KeyDown	41324	4	Index	15
301.2133333333334	0	n/a	180729	KeyDown	41324	4	Index	15
301.4333333333333	0	n/a	180861	KeyDown	41324	1	Little	15
301.6600000000000	0	n/a	180997	KeyDown	41324	3	Middle	15
301.8716666666667	0	n/a	181124	KeyDown	41324	2	Ring	15
302.0700000000000	0	n/a	181243	KeyDown	41324	4	Index	15
302.4166666666667	0	n/a	181451	KeyDown	41324	4	Index	15
302.5900000000000	0	n/a	181555	KeyDown	41324	1	Little	15
302.8483333333334	0	n/a	181710	KeyDown	41324	3	Middle	15
303.0550000000000	0	n/a	181834	KeyDown	41324	2	Ring	15
303.2683333333334	0	n/a	181962	KeyDown	41324	4	Index	15
303.8533333333334	0	n/a	182313	KeyDown	41324	4	Index	15
304.0333333333334	0	n/a	182421	KeyDown	41324	1	Little	15
304.2916666666667	0	n/a	182576	KeyDown	41324	2	Ring	15
304.3133333333333	0	n/a	182589	KeyDown	41324	3	Middle	15
304.9033333333334	0	n/a	182943	KeyDown	41324	4	Index	15
306.2933333333334	0	n/a	183777	StopPractice	41324	n/a	n/a	15
306.2950000000000	0	n/a	183778	StartRest	XXXXX	n/a	n/a	15
316.3300000000000	0	n/a	189799	StopRest	XXXXX	n/a	n/a	15
316.3316666666667	0	UPPT001	189800	StartPractice	41324	n/a	n/a	16
316.7033333333334	0	n/a	190023	KeyDown	41324	4	Index	16
316.9783333333334	0	n/a	190188	KeyDown	41324	1	Little	16
317.3150000000000	0	n/a	190390	KeyDown	41324	3	Middle	16
318.3116666666667	0	n/a	190988	KeyDown	41324	3	Middle	16
318.5416666666667	0	n/a	191126	KeyDown	41324	2	Ring	16
318.7183333333334	0	n/a	191232	KeyDown	41324	4	Index	16
319.0750000000000	0	n/a	191446	KeyDown	41324	4	Index	16
319.3333333333334	0	n/a	191601	KeyDown	41324	1	Little	16
319.5316666666667	0	n/a	191720	KeyDown	41324	3	Middle	16
319.7433333333333	0	n/a	191847	KeyDown	41324	2	Ring	16
319.9383333333333	0	n/a	191964	KeyDown	41324	4	Index	16
320.3400000000000	0	n/a	192205	KeyDown	41324	4	Index	16
320.5483333333333	0	n/a	192330	KeyDown	41324	1	Little	16
320.7783333333334	0	n/a	192468	KeyDown	41324	3	Middle	16
320.9783333333334	0	n/a	192588	KeyDown	41324	2	Ring	16
321.1783333333333	0	n/a	192708	KeyDown	41324	4	Index	16
321.5600000000000	0	n/a	192937	KeyDown	41324	4	Index	16
321.7633333333334	0	n/a	193059	KeyDown	41324	1	Little	16
321.9983333333333	0	n/a	193200	KeyDown	41324	3	Middle	16
322.2633333333334	0	n/a	193359	KeyDown	41324	2	Ring	16
322.5250000000000	0	n/a	193516	KeyDown	41324	4	Index	16
322.9916666666667	0	n/a	193796	KeyDown	41324	4	Index	16
323.7683333333334	0	n/a	194262	KeyDown	41324	1	Little	16
324.0333333333334	0	n/a	194421	KeyDown	41324	3	Middle	16
324.2800000000000	0	n/a	194569	KeyDown	41324	2	Ring	16
324.4583333333334	0	n/a	194676	KeyDown	41324	4	Index	16
325.1500000000000	0	n/a	195091	KeyDown	41324	4	Index	16
325.3800000000000	0	n/a	195229	KeyDown	41324	1	Little	16
325.5900000000000	0	n/a	195355	KeyDown	41324	3	Middle	16
325.8300000000000	0	n/a	195499	KeyDown	41324	2	Ring	16
326.0233333333334	0	n/a	195615	KeyDown	41324	4	Index	16
326.3700000000000	0	n/a	195823	StopPractice	41324	n/a	n/a	16
326.3716666666667	0	n/a	195824	StartRest	XXXXX	n/a	n/a	16
336.4033333333334	0	n/a	201843	StopRest	XXXXX	n/a	n/a	16
336.4050000000000	0	UPPT001	201844	StartPractice	41324	n/a	n/a	17
336.8666666666667	0	n/a	202121	KeyDown	41324	4	Index	17
337.1183333333333	0	n/a	202272	KeyDown	41324	1	Little	17
337.3783333333333	0	n/a	202428	KeyDown	41324	3	Middle	17
337.6016666666667	0	n/a	202562	KeyDown	41324	2	Ring	17
337.7733333333334	0	n/a	202665	KeyDown	41324	4	Index	17
338.3766666666667	0	n/a	203027	KeyDown	41324	4	Index	17
338.5716666666667	0	n/a	203144	KeyDown	41324	1	Little	17
338.8033333333333	0	n/a	203283	KeyDown	41324	3	Middle	17
339.0383333333334	0	n/a	203424	KeyDown	41324	2	Ring	17
339.2066666666667	0	n/a	203525	KeyDown	41324	4	Index	17
339.6433333333334	0	n/a	203787	KeyDown	41324	4	Index	17
339.8400000000000	0	n/a	203905	KeyDown	41324	1	Little	17
340.0400000000000	0	n/a	204025	KeyDown	41324	3	Middle	17
340.2466666666667	0	n/a	204149	KeyDown	41324	2	Ring	17
340.4283333333333	0	n/a	204258	KeyDown	41324	4	Index	17
341.0033333333333	0	n/a	204603	KeyDown	41324	4	Index	17
341.1933333333333	0	n/a	204717	KeyDown	41324	1	Little	17
341.4550000000000	0	n/a	204874	KeyDown	41324	3	Middle	17
341.6433333333334	0	n/a	204987	KeyDown	41324	2	Ring	17
341.8116666666667	0	n/a	205088	KeyDown	41324	4	Index	17
342.6433333333334	0	n/a	205587	KeyDown	41324	4	Index	17
342.8416666666667	0	n/a	205706	KeyDown	41324	1	Little	17
343.0433333333334	0	n/a	205827	KeyDown	41324	3	Middle	17
343.2583333333334	0	n/a	205956	KeyDown	41324	2	Ring	17
343.4400000000000	0	n/a	206065	KeyDown	41324	4	Index	17
343.8566666666667	0	n/a	206315	KeyDown	41324	4	Index	17
344.0483333333333	0	n/a	206430	KeyDown	41324	1	Little	17
344.2250000000000	0	n/a	206536	KeyDown	41324	3	Middle	17
344.4216666666667	0	n/a	206654	KeyDown	41324	2	Ring	17
344.6050000000000	0	n/a	206764	KeyDown	41324	4	Index	17
345.4600000000000	0	n/a	207277	KeyDown	41324	4	Index	17
345.6433333333334	0	n/a	207387	KeyDown	41324	1	Little	17
345.9066666666667	0	n/a	207545	KeyDown	41324	3	Middle	17
346.0983333333334	0	n/a	207660	KeyDown	41324	2	Ring	17
346.2583333333334	0	n/a	207756	KeyDown	41324	4	Index	17
346.4433333333333	0	n/a	207867	StopPractice	41324	n/a	n/a	17
346.4450000000001	0	n/a	207868	StartRest	XXXXX	n/a	n/a	17
356.4800000000000	0	n/a	213889	StopRest	XXXXX	n/a	n/a	17
356.4816666666667	0	UPPT001	213890	StartPractice	41324	n/a	n/a	18
356.8700000000000	0	n/a	214123	KeyDown	41324	4	Index	18
357.1866666666667	0	n/a	214313	KeyDown	41324	1	Little	18
357.7000000000000	0	n/a	214621	KeyDown	41324	3	Middle	18
357.8900000000000	0	n/a	214735	KeyDown	41324	2	Ring	18
358.0750000000000	0	n/a	214846	KeyDown	41324	4	Index	18
358.4250000000000	0	n/a	215056	KeyDown	41324	4	Index	18
358.6200000000000	0	n/a	215173	KeyDown	41324	1	Little	18
358.8283333333334	0	n/a	215298	KeyDown	41324	3	Middle	18
359.0200000000000	0	n/a	215413	KeyDown	41324	2	Ring	18
359.1933333333333	0	n/a	215517	KeyDown	41324	4	Index	18
359.7833333333334	0	n/a	215871	KeyDown	41324	4	Index	18
359.9983333333333	0	n/a	216000	KeyDown	41324	1	Little	18
360.2233333333334	0	n/a	216135	KeyDown	41324	3	Middle	18
360.4200000000000	0	n/a	216253	KeyDown	41324	2	Ring	18
360.5883333333334	0	n/a	216354	KeyDown	41324	4	Index	18
361.0100000000000	0	n/a	216607	KeyDown	41324	4	Index	18
361.1833333333333	0	n/a	216711	KeyDown	41324	1	Little	18
361.4016666666667	0	n/a	216842	KeyDown	41324	3	Middle	18
361.6450000000000	0	n/a	216988	KeyDown	41324	2	Ring	18
361.8700000000000	0	n/a	217123	KeyDown	41324	4	Index	18
362.4916666666667	0	n/a	217496	KeyDown	41324	4	Index	18
362.7166666666667	0	n/a	217631	KeyDown	41324	1	Little	18
362.9083333333334	0	n/a	217746	KeyDown	41324	3	Middle	18
363.1033333333334	0	n/a	217863	KeyDown	41324	2	Ring	18
363.3100000000000	0	n/a	217987	KeyDown	41324	4	Index	18
363.8050000000000	0	n/a	218284	KeyDown	41324	4	Index	18
364.0033333333333	0	n/a	218403	KeyDown	41324	1	Little	18
364.2016666666667	0	n/a	218522	KeyDown	41324	3	Middle	18
364.4066666666667	0	n/a	218645	KeyDown	41324	2	Ring	18
364.6083333333333	0	n/a	218766	KeyDown	41324	4	Index	18
365.1350000000000	0	n/a	219082	KeyDown	41324	4	Index	18
365.3633333333333	0	n/a	219219	KeyDown	41324	1	Little	18
365.7016666666667	0	n/a	219422	KeyDown	41324	1	Little	18
365.9533333333334	0	n/a	219573	KeyDown	41324	3	Middle	18
366.1383333333334	0	n/a	219684	KeyDown	41324	2	Ring	18
366.3066666666667	0	n/a	219785	KeyDown	41324	4	Index	18
366.5200000000000	0	n/a	219913	StopPractice	41324	n/a	n/a	18
366.5216666666667	0	n/a	219914	StartRest	XXXXX	n/a	n/a	18
376.5533333333333	0	n/a	225933	StopRest	XXXXX	n/a	n/a	18
376.5550000000000	0	UPPT001	225934	StartPractice	41324	n/a	n/a	19
377.1300000000001	0	n/a	226279	KeyDown	41324	4	Index	19
377.3716666666667	0	n/a	226424	KeyDown	41324	1	Little	19
377.5283333333334	0	n/a	226518	KeyDown	41324	3	Middle	19
377.7200000000000	0	n/a	226633	KeyDown	41324	2	Ring	19
377.9500000000000	0	n/a	226771	KeyDown	41324	4	Index	19
378.4233333333333	0	n/a	227055	KeyDown	41324	4	Index	19
378.6100000000000	0	n/a	227167	KeyDown	41324	1	Little	19
378.7900000000000	0	n/a	227275	KeyDown	41324	3	Middle	19
379.1233333333333	0	n/a	227475	KeyDown	41324	2	Ring	19
379.3683333333333	0	n/a	227622	KeyDown	41324	4	Index	19
379.7833333333334	0	n/a	227871	KeyDown	41324	4	Index	19
380.0216666666667	0	n/a	228014	KeyDown	41324	1	Little	19
380.1950000000001	0	n/a	228118	KeyDown	41324	3	Middle	19
380.4083333333334	0	n/a	228246	KeyDown	41324	2	Ring	19
380.6116666666667	0	n/a	228368	KeyDown	41324	4	Index	19
380.9433333333334	0	n/a	228567	KeyDown	41324	4	Index	19
381.1583333333334	0	n/a	228696	KeyDown	41324	1	Little	19
381.3716666666667	0	n/a	228824	KeyDown	41324	3	Middle	19
381.5450000000000	0	n/a	228928	KeyDown	41324	2	Ring	19
381.7550000000001	0	n/a	229054	KeyDown	41324	4	Index	19
382.0816666666667	0	n/a	229250	KeyDown	41324	4	Index	19
382.4466666666667	0	n/a	229469	KeyDown	41324	1	Little	19
382.7833333333334	0	n/a	229671	KeyDown	41324	3	Middle	19
383.1083333333333	0	n/a	229866	KeyDown	41324	2	Ring	19
383.2650000000000	0	n/a	229960	KeyDown	41324	2	Ring	19
383.4500000000000	0	n/a	230071	KeyDown	41324	4	Index	19
384.2433333333333	0	n/a	230547	KeyDown	41324	4	Index	19
384.4633333333334	0	n/a	230679	KeyDown	41324	1	Little	19
384.6716666666667	0	n/a	230804	KeyDown	41324	3	Middle	19
384.9033333333334	0	n/a	230943	KeyDown	41324	2	Ring	19
385.0850000000000	0	n/a	231052	KeyDown	41324	4	Index	19
385.4616666666667	0	n/a	231278	KeyDown	41324	4	Index	19
385.7600000000000	0	n/a	231457	KeyDown	41324	1	Little	19
385.9950000000000	0	n/a	231598	KeyDown	41324	3	Middle	19
386.1966666666667	0	n/a	231719	KeyDown	41324	2	Ring	19
386.3500000000000	0	n/a	231811	KeyDown	41324	4	Index	19
386.5933333333334	0	n/a	231957	StopPractice	41324	n/a	n/a	19
386.5950000000000	0	n/a	231958	StartRest	XXXXX	n/a	n/a	19
396.6283333333334	0	n/a	237978	StopRest	XXXXX	n/a	n/a	19
396.6300000000001	0	UPPT001	237979	StartPractice	41324	n/a	n/a	20
397.0100000000000	0	n/a	238207	KeyDown	41324	4	Index	20
397.2150000000000	0	n/a	238330	KeyDown	41324	1	Little	20
397.3966666666667	0	n/a	238439	KeyDown	41324	3	Middle	20
397.5766666666667	0	n/a	238547	KeyDown	41324	2	Ring	20
397.7433333333333	0	n/a	238647	KeyDown	41324	4	Index	20
398.0166666666667	0	n/a	238811	KeyDown	41324	4	Index	20
398.1966666666667	0	n/a	238919	KeyDown	41324	1	Little	20
398.3600000000000	0	n/a	239017	KeyDown	41324	3	Middle	20
398.5433333333334	0	n/a	239127	KeyDown	41324	2	Ring	20
398.7116666666667	0	n/a	239228	KeyDown	41324	4	Index	20
398.9833333333333	0	n/a	239391	KeyDown	41324	4	Index	20
399.1616666666667	0	n/a	239498	KeyDown	41324	1	Little	20
399.3533333333334	0	n/a	239613	KeyDown	41324	3	Middle	20
399.5100000000000	0	n/a	239707	KeyDown	41324	2	Ring	20
399.6816666666667	0	n/a	239810	KeyDown	41324	4	Index	20
399.9266666666667	0	n/a	239957	KeyDown	41324	4	Index	20
400.1733333333333	0	n/a	240105	KeyDown	41324	1	Little	20
400.4416666666667	0	n/a	240266	KeyDown	41324	3	Middle	20
400.6233333333333	0	n/a	240375	KeyDown	41324	2	Ring	20
400.7833333333334	0	n/a	240471	KeyDown	41324	4	Index	20
401.3550000000000	0	n/a	240814	KeyDown	41324	4	Index	20
401.5283333333334	0	n/a	240918	KeyDown	41324	1	Little	20
401.7783333333334	0	n/a	241068	KeyDown	41324	3	Middle	20
402.0133333333334	0	n/a	241209	KeyDown	41324	2	Ring	20
402.1950000000001	0	n/a	241318	KeyDown	41324	4	Index	20
402.5216666666667	0	n/a	241514	KeyDown	41324	4	Index	20
402.7316666666667	0	n/a	241640	KeyDown	41324	1	Little	20
403.6366666666667	0	n/a	242183	KeyDown	41324	3	Middle	20
403.7750000000000	0	n/a	242266	KeyDown	41324	2	Ring	20
403.9233333333333	0	n/a	242355	KeyDown	41324	4	Index	20
404.1933333333334	0	n/a	242517	KeyDown	41324	4	Index	20
404.5666666666667	0	n/a	242741	KeyDown	41324	1	Little	20
405.0066666666667	0	n/a	243005	KeyDown	41324	3	Middle	20
405.2033333333334	0	n/a	243123	KeyDown	41324	2	Ring	20
405.4233333333333	0	n/a	243255	KeyDown	41324	4	Index	20
406.6683333333334	0	n/a	244002	StopPractice	41324	n/a	n/a	20
406.6700000000000	0	n/a	244003	StartRest	XXXXX	n/a	n/a	20
416.7033333333334	0	n/a	250023	StopRest	XXXXX	n/a	n/a	20
416.7050000000000	0	UPPT001	250024	StartPractice	41324	n/a	n/a	21
417.0533333333333	0	n/a	250233	KeyDown	41324	4	Index	21
417.2833333333334	0	n/a	250371	KeyDown	41324	1	Little	21
417.4666666666667	0	n/a	250481	KeyDown	41324	3	Middle	21
417.6566666666667	0	n/a	250595	KeyDown	41324	2	Ring	21
417.8183333333334	0	n/a	250692	KeyDown	41324	4	Index	21
418.1533333333334	0	n/a	250893	KeyDown	41324	4	Index	21
418.3250000000000	0	n/a	250996	KeyDown	41324	1	Little	21
418.5216666666667	0	n/a	251114	KeyDown	41324	3	Middle	21
418.7050000000000	0	n/a	251224	KeyDown	41324	2	Ring	21
418.8766666666667	0	n/a	251327	KeyDown	41324	4	Index	21
419.1983333333334	0	n/a	251520	KeyDown	41324	4	Index	21
419.3933333333334	0	n/a	251637	KeyDown	41324	1	Little	21
419.5883333333334	0	n/a	251754	KeyDown	41324	3	Middle	21
419.7666666666667	0	n/a	251861	KeyDown	41324	2	Ring	21
419.9333333333333	0	n/a	251961	KeyDown	41324	4	Index	21
420.1900000000001	0	n/a	252115	KeyDown	41324	4	Index	21
420.4016666666667	0	n/a	252242	KeyDown	41324	1	Little	21
421.0966666666667	0	n/a	252659	KeyDown	41324	3	Middle	21
421.2533333333334	0	n/a	252753	KeyDown	41324	2	Ring	21
421.3833333333334	0	n/a	252831	KeyDown	41324	4	Index	21
421.6983333333334	0	n/a	253020	KeyDown	41324	4	Index	21
421.9216666666667	0	n/a	253154	KeyDown	41324	1	Little	21
422.1383333333334	0	n/a	253284	KeyDown	41324	3	Middle	21
422.3333333333334	0	n/a	253401	KeyDown	41324	2	Ring	21
422.5300000000000	0	n/a	253519	KeyDown	41324	4	Index	21
422.8583333333333	0	n/a	253716	KeyDown	41324	4	Index	21
423.1250000000000	0	n/a	253876	KeyDown	41324	1	Little	21
423.3566666666667	0	n/a	254015	KeyDown	41324	3	Middle	21
423.5533333333333	0	n/a	254133	KeyDown	41324	2	Ring	21
423.7366666666667	0	n/a	254243	KeyDown	41324	4	Index	21
424.2216666666667	0	n/a	254534	KeyDown	41324	4	Index	21
424.4016666666667	0	n/a	254642	KeyDown	41324	1	Little	21
424.8933333333334	0	n/a	254937	KeyDown	41324	3	Middle	21
425.0916666666667	0	n/a	255056	KeyDown	41324	2	Ring	21
425.2733333333334	0	n/a	255165	KeyDown	41324	4	Index	21
426.3266666666667	0	n/a	255797	KeyDown	41324	4	Index	21
426.5033333333334	0	n/a	255903	KeyDown	41324	1	Little	21
426.6883333333333	0	n/a	256014	KeyDown	41324	3	Middle	21
426.7433333333333	0	n/a	256047	StopPractice	41324	n/a	n/a	21
426.7450000000000	0	n/a	256048	StartRest	XXXXX	n/a	n/a	21
436.7783333333334	0	n/a	262068	StopRest	XXXXX	n/a	n/a	21
436.7800000000000	0	UPPT001	262069	StartPractice	41324	n/a	n/a	22
437.1283333333334	0	n/a	262278	KeyDown	41324	4	Index	22
437.3916666666667	0	n/a	262436	KeyDown	41324	1	Little	22
437.5650000000001	0	n/a	262540	KeyDown	41324	3	Middle	22
437.7616666666667	0	n/a	262658	KeyDown	41324	2	Ring	22
437.9183333333334	0	n/a	262752	KeyDown	41324	4	Index	22
438.2000000000000	0	n/a	262921	KeyDown	41324	4	Index	22
438.3783333333334	0	n/a	263028	KeyDown	41324	1	Little	22
438.5383333333334	0	n/a	263124	KeyDown	41324	3	Middle	22
438.7250000000000	0	n/a	263236	KeyDown	41324	2	Ring	22
438.8833333333334	0	n/a	263331	KeyDown	41324	4	Index	22
439.1800000000000	0	n/a	263509	KeyDown	41324	4	Index	22
439.3666666666667	0	n/a	263621	KeyDown	41324	1	Little	22
439.5216666666667	0	n/a	263714	KeyDown	41324	3	Middle	22
439.6850000000000	0	n/a	263812	KeyDown	41324	2	Ring	22
439.8566666666667	0	n/a	263915	KeyDown	41324	4	Index	22
440.1233333333333	0	n/a	264075	KeyDown	41324	4	Index	22
440.4366666666667	0	n/a	264263	KeyDown	41324	1	Little	22
441.6466666666667	0	n/a	264989	KeyDown	41324	3	Middle	22
441.8583333333333	0	n/a	265116	KeyDown	41324	2	Ring	22
442.0333333333334	0	n/a	265221	KeyDown	41324	4	Index	22
442.3233333333334	0	n/a	265395	KeyDown	41324	4	Index	22
442.5466666666667	0	n/a	265529	KeyDown	41324	1	Little	22
442.7333333333333	0	n/a	265641	KeyDown	41324	3	Middle	22
442.9116666666667	0	n/a	265748	KeyDown	41324	2	Ring	22
443.0750000000000	0	n/a	265846	KeyDown	41324	4	Index	22
443.3366666666667	0	n/a	266003	KeyDown	41324	4	Index	22
443.5516666666667	0	n/a	266132	KeyDown	41324	1	Little	22
443.7116666666667	0	n/a	266228	KeyDown	41324	3	Middle	22
443.9016666666667	0	n/a	266342	KeyDown	41324	2	Ring	22
444.0666666666667	0	n/a	266441	KeyDown	41324	4	Index	22
444.6983333333334	0	n/a	266820	KeyDown	41324	4	Index	22
444.9416666666667	0	n/a	266966	KeyDown	41324	3	Middle	22
445.2100000000000	0	n/a	267127	KeyDown	41324	2	Ring	22
446.8183333333334	0	n/a	268092	StopPractice	41324	n/a	n/a	22
446.8200000000001	0	n/a	268093	StartRest	XXXXX	n/a	n/a	22
456.8533333333334	0	n/a	274113	StopRest	XXXXX	n/a	n/a	22
456.8550000000000	0	UPPT001	274114	StartPractice	41324	n/a	n/a	23
457.2616666666667	0	n/a	274358	KeyDown	41324	4	Index	23
457.5166666666667	0	n/a	274511	KeyDown	41324	1	Little	23
457.6400000000000	0	n/a	274585	KeyDown	41324	3	Middle	23
457.8866666666667	0	n/a	274733	KeyDown	41324	3	Middle	23
458.2866666666667	0	n/a	274973	KeyDown	41324	2	Ring	23
458.4850000000000	0	n/a	275092	KeyDown	41324	4	Index	23
458.8783333333334	0	n/a	275328	KeyDown	41324	4	Index	23
459.1116666666667	0	n/a	275468	KeyDown	41324	1	Little	23
459.2816666666667	0	n/a	275570	KeyDown	41324	3	Middle	23
459.4733333333334	0	n/a	275685	KeyDown	41324	2	Ring	23
459.6466666666667	0	n/a	275789	KeyDown	41324	4	Index	23
459.9600000000000	0	n/a	275977	KeyDown	41324	4	Index	23
460.1400000000000	0	n/a	276085	KeyDown	41324	1	Little	23
460.3266666666667	0	n/a	276197	KeyDown	41324	3	Middle	23
460.5233333333334	0	n/a	276315	KeyDown	41324	2	Ring	23
460.7050000000000	0	n/a	276424	KeyDown	41324	4	Index	23
461.3366666666667	0	n/a	276803	KeyDown	41324	4	Index	23
461.8800000000001	0	n/a	277129	KeyDown	41324	1	Little	23
462.2916666666667	0	n/a	277376	KeyDown	41324	3	Middle	23
462.5066666666667	0	n/a	277505	KeyDown	41324	2	Ring	23
462.6883333333334	0	n/a	277614	KeyDown	41324	4	Index	23
463.0566666666667	0	n/a	277835	KeyDown	41324	4	Index	23
463.2683333333334	0	n/a	277962	KeyDown	41324	1	Little	23
464.0483333333333	0	n/a	278430	KeyDown	41324	3	Middle	23
464.2133333333334	0	n/a	278529	KeyDown	41324	2	Ring	23
464.3866666666667	0	n/a	278633	KeyDown	41324	4	Index	23
464.9650000000000	0	n/a	278980	KeyDown	41324	4	Index	23
465.1750000000000	0	n/a	279106	KeyDown	41324	1	Little	23
465.4316666666667	0	n/a	279260	KeyDown	41324	3	Middle	23
465.6666666666667	0	n/a	279401	KeyDown	41324	2	Ring	23
465.8316666666667	0	n/a	279500	KeyDown	41324	4	Index	23
466.5416666666667	0	n/a	279926	KeyDown	41324	4	Index	23
466.7066666666667	0	n/a	280025	KeyDown	41324	1	Little	23
466.8933333333334	0	n/a	280137	StopPractice	41324	n/a	n/a	23
466.8950000000000	0	n/a	280138	StartRest	XXXXX	n/a	n/a	23
476.9283333333333	0	n/a	286158	StopRest	XXXXX	n/a	n/a	23
476.9300000000000	0	UPPT001	286159	StartPractice	41324	n/a	n/a	24
477.3583333333333	0	n/a	286416	KeyDown	41324	4	Index	24
477.5483333333333	0	n/a	286530	KeyDown	41324	1	Little	24
477.7216666666667	0	n/a	286634	KeyDown	41324	3	Middle	24
477.9133333333334	0	n/a	286749	KeyDown	41324	2	Ring	24
478.0816666666667	0	n/a	286850	KeyDown	41324	4	Index	24
478.3733333333334	0	n/a	287025	KeyDown	41324	4	Index	24
478.5433333333334	0	n/a	287127	KeyDown	41324	1	Little	24
478.7050000000000	0	n/a	287224	KeyDown	41324	3	Middle	24
478.8766666666667	0	n/a	287327	KeyDown	41324	2	Ring	24
479.0433333333334	0	n/a	287427	KeyDown	41324	4	Index	24
479.3333333333334	0	n/a	287601	KeyDown	41324	4	Index	24
479.5433333333334	0	n/a	287727	KeyDown	41324	2	Ring	24
479.8166666666667	0	n/a	287891	KeyDown	41324	1	Little	24
480.2566666666667	0	n/a	288155	KeyDown	41324	3	Middle	24
480.4433333333334	0	n/a	288267	KeyDown	41324	2	Ring	24
480.6466666666667	0	n/a	288389	KeyDown	41324	4	Index	24
481.0933333333334	0	n/a	288657	KeyDown	41324	4	Index	24
481.3016666666667	0	n/a	288782	KeyDown	41324	1	Little	24
481.5533333333333	0	n/a	288933	KeyDown	41324	3	Middle	24
481.7283333333334	0	n/a	289038	KeyDown	41324	2	Ring	24
481.9200000000000	0	n/a	289153	KeyDown	41324	4	Index	24
482.2683333333334	0	n/a	289362	KeyDown	41324	4	Index	24
482.4533333333334	0	n/a	289473	KeyDown	41324	1	Little	24
482.7016666666667	0	n/a	289622	KeyDown	41324	3	Middle	24
482.8916666666667	0	n/a	289736	KeyDown	41324	2	Ring	24
483.0983333333334	0	n/a	289860	KeyDown	41324	4	Index	24
483.3833333333334	0	n/a	290031	KeyDown	41324	4	Index	24
483.6183333333333	0	n/a	290172	KeyDown	41324	1	Little	24
484.3966666666667	0	n/a	290639	KeyDown	41324	3	Middle	24
484.5733333333334	0	n/a	290745	KeyDown	41324	2	Ring	24
484.7383333333333	0	n/a	290844	KeyDown	41324	4	Index	24
485.3700000000000	0	n/a	291223	KeyDown	41324	4	Index	24
485.7633333333334	0	n/a	291459	KeyDown	41324	1	Little	24
486.4666666666667	0	n/a	291881	KeyDown	41324	3	Middle	24
486.6383333333334	0	n/a	291984	KeyDown	41324	2	Ring	24
486.8183333333334	0	n/a	292092	KeyDown	41324	3	Middle	24
486.8316666666667	0	n/a	292100	KeyDown	41324	4	Index	24
486.9683333333334	0	n/a	292182	StopPractice	41324	n/a	n/a	24
486.9700000000000	0	n/a	292183	StartRest	XXXXX	n/a	n/a	24
497.0033333333334	0	n/a	298203	StopRest	XXXXX	n/a	n/a	24
497.0050000000001	0	UPPT001	298204	StartPractice	41324	n/a	n/a	25
497.4366666666667	0	n/a	298463	KeyDown	41324	4	Index	25
497.6916666666667	0	n/a	298616	KeyDown	41324	1	Little	25
497.8816666666667	0	n/a	298730	KeyDown	41324	3	Middle	25
498.0533333333333	0	n/a	298833	KeyDown	41324	2	Ring	25
498.2616666666667	0	n/a	298958	KeyDown	41324	4	Index	25
498.6516666666667	0	n/a	299192	KeyDown	41324	4	Index	25
498.8416666666667	0	n/a	299306	KeyDown	41324	1	Little	25
499.0316666666667	0	n/a	299420	KeyDown	41324	3	Middle	25
499.2133333333334	0	n/a	299529	KeyDown	41324	2	Ring	25
499.3983333333334	0	n/a	299640	KeyDown	41324	4	Index	25
499.7550000000001	0	n/a	299854	KeyDown	41324	4	Index	25
499.9516666666667	0	n/a	299972	KeyDown	41324	1	Little	25
500.1483333333334	0	n/a	300090	KeyDown	41324	3	Middle	25
500.3233333333334	0	n/a	300195	KeyDown	41324	2	Ring	25
500.5083333333334	0	n/a	300306	KeyDown	41324	4	Index	25
500.8400000000000	0	n/a	300505	KeyDown	41324	4	Index	25
501.0266666666667	0	n/a	300617	KeyDown	41324	1	Little	25
501.2016666666667	0	n/a	300722	KeyDown	41324	3	Middle	25
501.3766666666667	0	n/a	300827	KeyDown	41324	2	Ring	25
501.5866666666667	0	n/a	300953	KeyDown	41324	4	Index	25
501.9283333333333	0	n/a	301158	KeyDown	41324	4	Index	25
502.1466666666667	0	n/a	301289	KeyDown	41324	1	Little	25
503.6966666666667	0	n/a	302219	KeyDown	41324	3	Middle	25
503.8666666666667	0	n/a	302321	KeyDown	41324	2	Ring	25
504.1533333333334	0	n/a	302493	KeyDown	41324	4	Index	25
504.4483333333334	0	n/a	302670	KeyDown	41324	4	Index	25
504.6866666666667	0	n/a	302813	KeyDown	41324	1	Little	25
505.1533333333334	0	n/a	303093	KeyDown	41324	1	Little	25
505.3833333333334	0	n/a	303231	KeyDown	41324	3	Middle	25
505.8366666666667	0	n/a	303503	KeyDown	41324	2	Ring	25
506.0216666666667	0	n/a	303614	KeyDown	41324	4	Index	25
506.4116666666667	0	n/a	303848	KeyDown	41324	4	Index	25
506.6566666666667	0	n/a	303995	KeyDown	41324	1	Little	25
506.8583333333333	0	n/a	304116	KeyDown	41324	3	Middle	25
507.0433333333334	0	n/a	304227	StopPractice	41324	n/a	n/a	25
507.0450000000000	0	n/a	304228	StartRest	XXXXX	n/a	n/a	25
517.0783333333334	0	n/a	310248	StopRest	XXXXX	n/a	n/a	25
517.0800000000000	0	UPPT001	310249	StartPractice	41324	n/a	n/a	26
517.4450000000001	0	n/a	310468	KeyDown	41324	4	Index	26
517.6416666666667	0	n/a	310586	KeyDown	41324	1	Little	26
517.8066666666667	0	n/a	310685	KeyDown	41324	3	Middle	26
518.0066666666667	0	n/a	310805	KeyDown	41324	2	Ring	26
518.1750000000001	0	n/a	310906	KeyDown	41324	4	Index	26
518.4833333333333	0	n/a	311091	KeyDown	41324	4	Index	26
518.6666666666667	0	n/a	311201	KeyDown	41324	1	Little	26
518.8616666666667	0	n/a	311318	KeyDown	41324	3	Middle	26
519.0283333333334	0	n/a	311418	KeyDown	41324	2	Ring	26
519.2016666666667	0	n/a	311522	KeyDown	41324	4	Index	26
519.4733333333334	0	n/a	311685	KeyDown	41324	4	Index	26
519.6600000000001	0	n/a	311797	KeyDown	41324	1	Little	26
519.8133333333334	0	n/a	311889	KeyDown	41324	3	Middle	26
519.9883333333333	0	n/a	311994	KeyDown	41324	2	Ring	26
520.1633333333334	0	n/a	312099	KeyDown	41324	4	Index	26
520.4550000000000	0	n/a	312274	KeyDown	41324	4	Index	26
520.6883333333334	0	n/a	312414	KeyDown	41324	1	Little	26
520.9066666666668	0	n/a	312545	KeyDown	41324	3	Middle	26
521.0983333333334	0	n/a	312660	KeyDown	41324	2	Ring	26
521.2616666666667	0	n/a	312758	KeyDown	41324	4	Index	26
521.5583333333334	0	n/a	312936	KeyDown	41324	4	Index	26
521.7466666666667	0	n/a	313049	KeyDown	41324	1	Little	26
521.9583333333334	0	n/a	313176	KeyDown	41324	3	Middle	26
522.1416666666667	0	n/a	313286	KeyDown	41324	2	Ring	26
522.3183333333334	0	n/a	313392	KeyDown	41324	4	Index	26
522.6083333333333	0	n/a	313566	KeyDown	41324	4	Index	26
523.2733333333333	0	n/a	313965	KeyDown	41324	1	Little	26
523.4433333333334	0	n/a	314067	KeyDown	41324	3	Middle	26
523.6300000000000	0	n/a	314179	KeyDown	41324	2	Ring	26
523.7933333333334	0	n/a	314277	KeyDown	41324	4	Index	26
524.1616666666667	0	n/a	314498	KeyDown	41324	4	Index	26
524.3483333333334	0	n/a	314610	KeyDown	41324	1	Little	26
525.3750000000000	0	n/a	315226	KeyDown	41324	3	Middle	26
525.5966666666667	0	n/a	315359	KeyDown	41324	2	Ring	26
525.7700000000000	0	n/a	315463	KeyDown	41324	4	Index	26
527.1183333333333	0	n/a	316272	StopPractice	41324	n/a	n/a	26
527.1200000000000	0	n/a	316273	StartRest	XXXXX	n/a	n/a	26
537.1516666666668	0	n/a	322292	StopRest	XXXXX	n/a	n/a	26
537.1533333333334	0	UPPT001	322293	StartPractice	41324	n/a	n/a	27
537.6583333333334	0	n/a	322596	KeyDown	41324	4	Index	27
537.8516666666667	0	n/a	322712	KeyDown	41324	1	Little	27
538.0250000000001	0	n/a	322816	KeyDown	41324	3	Middle	27
538.1900000000001	0	n/a	322915	KeyDown	41324	2	Ring	27
538.3633333333333	0	n/a	323019	KeyDown	41324	4	Index	27
538.6400000000000	0	n/a	323185	KeyDown	41324	4	Index	27
538.8283333333334	0	n/a	323298	KeyDown	41324	1	Little	27
538.9666666666667	0	n/a	323381	KeyDown	41324	3	Middle	27
539.4033333333334	0	n/a	323643	KeyDown	41324	2	Ring	27
539.6183333333333	0	n/a	323772	KeyDown	41324	4	Index	27
540.0650000000001	0	n/a	324040	KeyDown	41324	4	Index	27
540.2483333333333	0	n/a	324150	KeyDown	41324	1	Little	27
540.4200000000001	0	n/a	324253	KeyDown	41324	3	Middle	27
540.6016666666667	0	n/a	324362	KeyDown	41324	2	Ring	27
540.7916666666667	0	n/a	324476	KeyDown	41324	4	Index	27
541.0900000000000	0	n/a	324655	KeyDown	41324	4	Index	27
541.2650000000000	0	n/a	324760	KeyDown	41324	1	Little	27
541.4300000000001	0	n/a	324859	KeyDown	41324	3	Middle	27
541.6016666666667	0	n/a	324962	KeyDown	41324	2	Ring	27
541.7666666666667	0	n/a	325061	KeyDown	41324	4	Index	27
542.0300000000001	0	n/a	325219	KeyDown	41324	4	Index	27
542.2300000000000	0	n/a	325339	KeyDown	41324	1	Little	27
542.4083333333334	0	n/a	325446	KeyDown	41324	3	Middle	27
542.5683333333334	0	n/a	325542	KeyDown	41324	2	Ring	27
542.7400000000000	0	n/a	325645	KeyDown	41324	4	Index	27
543.0133333333333	0	n/a	325809	KeyDown	41324	4	Index	27
543.2183333333334	0	n/a	325932	KeyDown	41324	1	Little	27
543.7550000000000	0	n/a	326254	KeyDown	41324	3	Middle	27
543.8850000000000	0	n/a	326332	KeyDown	41324	2	Ring	27
544.0666666666667	0	n/a	326441	KeyDown	41324	4	Index	27
544.4950000000000	0	n/a	326698	KeyDown	41324	4	Index	27
544.7266666666667	0	n/a	326837	KeyDown	41324	1	Little	27
544.9516666666667	0	n/a	326972	KeyDown	41324	3	Middle	27
545.1450000000000	0	n/a	327088	KeyDown	41324	2	Ring	27
545.3233333333334	0	n/a	327195	KeyDown	41324	4	Index	27
545.9616666666667	0	n/a	327578	KeyDown	41324	4	Index	27
546.1133333333333	0	n/a	327669	KeyDown	41324	1	Little	27
546.4400000000001	0	n/a	327865	KeyDown	41324	3	Middle	27
546.6616666666667	0	n/a	327998	KeyDown	41324	2	Ring	27
546.9916666666667	0	n/a	328196	KeyDown	41324	2	Ring	27
547.1916666666667	0	n/a	328316	StopPractice	41324	n/a	n/a	27
547.1933333333334	0	n/a	328317	StartRest	XXXXX	n/a	n/a	27
557.2266666666667	0	n/a	334337	StopRest	XXXXX	n/a	n/a	27
557.2283333333334	0	UPPT001	334338	StartPractice	41324	n/a	n/a	28
557.5600000000001	0	n/a	334537	KeyDown	41324	4	Index	28
557.7700000000000	0	n/a	334663	KeyDown	41324	1	Little	28
557.9383333333334	0	n/a	334764	KeyDown	41324	3	Middle	28
558.1100000000000	0	n/a	334867	KeyDown	41324	2	Ring	28
558.2650000000000	0	n/a	334960	KeyDown	41324	4	Index	28
558.5633333333334	0	n/a	335139	KeyDown	41324	4	Index	28
558.7483333333333	0	n/a	335250	KeyDown	41324	1	Little	28
558.9350000000001	0	n/a	335362	KeyDown	41324	3	Middle	28
559.1050000000000	0	n/a	335464	KeyDown	41324	2	Ring	28
559.2783333333334	0	n/a	335568	KeyDown	41324	4	Index	28
559.6383333333333	0	n/a	335784	KeyDown	41324	4	Index	28
559.8250000000000	0	n/a	335896	KeyDown	41324	1	Little	28
560.0066666666667	0	n/a	336005	KeyDown	41324	3	Middle	28
560.1700000000001	0	n/a	336103	KeyDown	41324	2	Ring	28
560.3633333333333	0	n/a	336219	KeyDown	41324	4	Index	28
560.6566666666668	0	n/a	336395	KeyDown	41324	4	Index	28
560.8633333333333	0	n/a	336519	KeyDown	41324	1	Little	28
561.0816666666667	0	n/a	336650	KeyDown	41324	3	Middle	28
561.2516666666667	0	n/a	336752	KeyDown	41324	2	Ring	28
561.4716666666667	0	n/a	336884	KeyDown	41324	4	Index	28
561.7916666666667	0	n/a	337076	KeyDown	41324	4	Index	28
562.0316666666668	0	n/a	337220	KeyDown	41324	1	Little	28
562.2766666666668	0	n/a	337367	KeyDown	41324	3	Middle	28
562.4533333333334	0	n/a	337473	KeyDown	41324	2	Ring	28
562.6200000000000	0	n/a	337573	KeyDown	41324	4	Index	28
562.8816666666667	0	n/a	337730	KeyDown	41324	4	Index	28
563.1033333333334	0	n/a	337863	KeyDown	41324	1	Little	28
563.3900000000000	0	n/a	338035	KeyDown	41324	3	Middle	28
563.6150000000000	0	n/a	338170	KeyDown	41324	2	Ring	28
563.8233333333334	0	n/a	338295	KeyDown	41324	4	Index	28
564.3166666666667	0	n/a	338591	KeyDown	41324	4	Index	28
564.9516666666667	0	n/a	338972	KeyDown	41324	1	Little	28
565.1616666666667	0	n/a	339098	KeyDown	41324	3	Middle	28
565.5116666666667	0	n/a	339308	KeyDown	41324	2	Ring	28
565.6600000000001	0	n/a	339397	KeyDown	41324	4	Index	28
566.3250000000000	0	n/a	339796	KeyDown	41324	4	Index	28
566.5116666666667	0	n/a	339908	KeyDown	41324	3	Middle	28
566.7233333333334	0	n/a	340035	KeyDown	41324	2	Ring	28
567.2666666666667	0	n/a	340361	StopPractice	41324	n/a	n/a	28
567.2683333333333	0	n/a	340362	StartRest	XXXXX	n/a	n/a	28
577.3016666666667	0	n/a	346382	StopRest	XXXXX	n/a	n/a	28
577.3033333333334	0	UPPT001	346383	StartPractice	41324	n/a	n/a	29
577.7283333333334	0	n/a	346638	KeyDown	41324	4	Index	29
577.9216666666667	0	n/a	346754	KeyDown	41324	1	Little	29
578.1500000000001	0	n/a	346891	KeyDown	41324	3	Middle	29
578.3466666666667	0	n/a	347009	KeyDown	41324	2	Ring	29
578.5200000000000	0	n/a	347113	KeyDown	41324	4	Index	29
578.8500000000000	0	n/a	347311	KeyDown	41324	4	Index	29
579.0316666666668	0	n/a	347420	KeyDown	41324	1	Little	29
579.1800000000001	0	n/a	347509	KeyDown	41324	3	Middle	29
579.3666666666667	0	n/a	347621	KeyDown	41324	2	Ring	29
579.5416666666667	0	n/a	347726	KeyDown	41324	4	Index	29
579.8283333333334	0	n/a	347898	KeyDown	41324	4	Index	29
580.0050000000000	0	n/a	348004	KeyDown	41324	1	Little	29
580.1666666666667	0	n/a	348101	KeyDown	41324	3	Middle	29
580.3300000000000	0	n/a	348199	KeyDown	41324	2	Ring	29
580.5116666666667	0	n/a	348308	KeyDown	41324	4	Index	29
580.7783333333334	0	n/a	348468	KeyDown	41324	4	Index	29
580.9816666666667	0	n/a	348590	KeyDown	41324	1	Little	29
581.1500000000001	0	n/a	348691	KeyDown	41324	3	Middle	29
581.3250000000000	0	n/a	348796	KeyDown	41324	2	Ring	29
581.4850000000000	0	n/a	348892	KeyDown	41324	4	Index	29
581.7766666666668	0	n/a	349067	KeyDown	41324	4	Index	29
582.1766666666667	0	n/a	349307	KeyDown	41324	1	Little	29
582.6533333333334	0	n/a	349593	KeyDown	41324	3	Middle	29
582.8283333333334	0	n/a	349698	KeyDown	41324	2	Ring	29
582.9900000000000	0	n/a	349795	KeyDown	41324	4	Index	29
583.2366666666667	0	n/a	349943	KeyDown	41324	4	Index	29
583.4866666666667	0	n/a	350093	KeyDown	41324	1	Little	29
583.7183333333334	0	n/a	350232	KeyDown	41324	3	Middle	29
583.9000000000001	0	n/a	350341	KeyDown	41324	2	Ring	29
584.0816666666667	0	n/a	350450	KeyDown	41324	4	Index	29
584.5616666666667	0	n/a	350738	KeyDown	41324	4	Index	29
584.8050000000001	0	n/a	350884	KeyDown	41324	1	Little	29
585.2250000000000	0	n/a	351136	KeyDown	41324	3	Middle	29
585.4266666666667	0	n/a	351257	KeyDown	41324	2	Ring	29
585.6000000000000	0	n/a	351361	KeyDown	41324	4	Index	29
586.5833333333334	0	n/a	351951	KeyDown	41324	4	Index	29
586.7533333333333	0	n/a	352053	KeyDown	41324	1	Little	29
587.0933333333334	0	n/a	352257	KeyDown	41324	2	Ring	29
587.3416666666667	0	n/a	352406	StopPractice	41324	n/a	n/a	29
587.3433333333334	0	n/a	352407	StartRest	XXXXX	n/a	n/a	29
597.3766666666667	0	n/a	358427	StopRest	XXXXX	n/a	n/a	29
597.3783333333333	0	UPPT001	358428	StartPractice	41324	n/a	n/a	30
597.7900000000001	0	n/a	358675	KeyDown	41324	4	Index	30
598.0716666666667	0	n/a	358844	KeyDown	41324	1	Little	30
598.2866666666667	0	n/a	358973	KeyDown	41324	3	Middle	30
598.4616666666667	0	n/a	359078	KeyDown	41324	2	Ring	30
598.6400000000000	0	n/a	359185	KeyDown	41324	4	Index	30
598.9466666666667	0	n/a	359369	KeyDown	41324	4	Index	30
599.1300000000000	0	n/a	359479	KeyDown	41324	1	Little	30
599.2866666666667	0	n/a	359573	KeyDown	41324	3	Middle	30
599.4483333333334	0	n/a	359670	KeyDown	41324	2	Ring	30
599.6233333333333	0	n/a	359775	KeyDown	41324	4	Index	30
599.9366666666667	0	n/a	359963	KeyDown	41324	4	Index	30
600.1750000000001	0	n/a	360106	KeyDown	41324	1	Little	30
600.3850000000000	0	n/a	360232	KeyDown	41324	3	Middle	30
600.5600000000001	0	n/a	360337	KeyDown	41324	2	Ring	30
600.7500000000000	0	n/a	360451	KeyDown	41324	4	Index	30
601.0366666666667	0	n/a	360623	KeyDown	41324	4	Index	30
601.2416666666667	0	n/a	360746	KeyDown	41324	1	Little	30
601.4450000000001	0	n/a	360868	KeyDown	41324	3	Middle	30
601.6216666666667	0	n/a	360974	KeyDown	41324	2	Ring	30
601.8116666666667	0	n/a	361088	KeyDown	41324	4	Index	30
602.1266666666667	0	n/a	361277	KeyDown	41324	4	Index	30
602.3550000000000	0	n/a	361414	KeyDown	41324	1	Little	30
602.6050000000000	0	n/a	361564	KeyDown	41324	3	Middle	30
602.8216666666667	0	n/a	361694	KeyDown	41324	2	Ring	30
602.9966666666667	0	n/a	361799	KeyDown	41324	4	Index	30
603.3133333333334	0	n/a	361989	KeyDown	41324	4	Index	30
604.0566666666667	0	n/a	362435	KeyDown	41324	1	Little	30
604.3750000000000	0	n/a	362626	KeyDown	41324	3	Middle	30
604.4516666666667	0	n/a	362672	KeyDown	41324	3	Middle	30
604.6366666666667	0	n/a	362783	KeyDown	41324	2	Ring	30
604.8116666666667	0	n/a	362888	KeyDown	41324	4	Index	30
605.1933333333334	0	n/a	363117	KeyDown	41324	4	Index	30
605.4383333333334	0	n/a	363264	KeyDown	41324	1	Little	30
605.9550000000000	0	n/a	363574	KeyDown	41324	3	Middle	30
606.1550000000001	0	n/a	363694	KeyDown	41324	2	Ring	30
606.2850000000001	0	n/a	363772	KeyDown	41324	4	Index	30
607.4166666666667	0	n/a	364451	StopPractice	41324	n/a	n/a	30
607.4183333333334	0	n/a	364452	StartRest	XXXXX	n/a	n/a	30
617.4516666666667	0	n/a	370472	StopRest	XXXXX	n/a	n/a	30
617.4533333333334	0	UPPT001	370473	StartPractice	41324	n/a	n/a	31
618.0400000000001	0	n/a	370825	KeyDown	41324	4	Index	31
618.2616666666667	0	n/a	370958	KeyDown	41324	1	Little	31
618.4400000000001	0	n/a	371065	KeyDown	41324	3	Middle	31
618.6216666666667	0	n/a	371174	KeyDown	41324	2	Ring	31
618.8016666666667	0	n/a	371282	KeyDown	41324	4	Index	31
619.1083333333333	0	n/a	371466	KeyDown	41324	4	Index	31
619.2950000000001	0	n/a	371578	KeyDown	41324	1	Little	31
619.4850000000000	0	n/a	371692	KeyDown	41324	3	Middle	31
619.6850000000001	0	n/a	371812	KeyDown	41324	2	Ring	31
619.8816666666667	0	n/a	371930	KeyDown	41324	4	Index	31
620.2033333333334	0	n/a	372123	KeyDown	41324	4	Index	31
620.4350000000001	0	n/a	372262	KeyDown	41324	1	Little	31
620.6366666666667	0	n/a	372383	KeyDown	41324	3	Middle	31
620.8233333333334	0	n/a	372495	KeyDown	41324	2	Ring	31
621.0133333333333	0	n/a	372609	KeyDown	41324	4	Index	31
621.2716666666668	0	n/a	372764	KeyDown	41324	4	Index	31
621.4716666666667	0	n/a	372884	KeyDown	41324	1	Little	31
621.6800000000001	0	n/a	373009	KeyDown	41324	3	Middle	31
621.8816666666667	0	n/a	373130	KeyDown	41324	2	Ring	31
622.0600000000001	0	n/a	373237	KeyDown	41324	4	Index	31
622.3483333333334	0	n/a	373410	KeyDown	41324	4	Index	31
622.7050000000000	0	n/a	373624	KeyDown	41324	1	Little	31
622.9766666666667	0	n/a	373787	KeyDown	41324	3	Middle	31
623.5650000000001	0	n/a	374140	KeyDown	41324	2	Ring	31
623.7783333333334	0	n/a	374268	KeyDown	41324	4	Index	31
624.1000000000000	0	n/a	374461	KeyDown	41324	4	Index	31
624.3250000000000	0	n/a	374596	KeyDown	41324	1	Little	31
624.5216666666668	0	n/a	374714	KeyDown	41324	3	Middle	31
624.7550000000000	0	n/a	374854	KeyDown	41324	2	Ring	31
624.9183333333334	0	n/a	374952	KeyDown	41324	4	Index	31
625.3216666666667	0	n/a	375194	KeyDown	41324	4	Index	31
626.1750000000001	0	n/a	375706	KeyDown	41324	1	Little	31
626.4083333333334	0	n/a	375846	KeyDown	41324	3	Middle	31
626.6316666666667	0	n/a	375980	KeyDown	41324	2	Ring	31
626.8200000000001	0	n/a	376093	KeyDown	41324	4	Index	31
627.4916666666667	0	n/a	376496	StopPractice	41324	n/a	n/a	31
627.4933333333333	0	n/a	376497	StartRest	XXXXX	n/a	n/a	31
637.5266666666668	0	n/a	382517	StopRest	XXXXX	n/a	n/a	31
637.5283333333334	0	UPPT001	382518	StartPractice	41324	n/a	n/a	32
637.8316666666667	0	n/a	382700	KeyDown	41324	4	Index	32
638.0566666666667	0	n/a	382835	KeyDown	41324	1	Little	32
638.2316666666667	0	n/a	382940	KeyDown	41324	3	Middle	32
638.4116666666667	0	n/a	383048	KeyDown	41324	2	Ring	32
638.5800000000000	0	n/a	383149	KeyDown	41324	4	Index	32
638.8383333333334	0	n/a	383304	KeyDown	41324	4	Index	32
639.0083333333333	0	n/a	383406	KeyDown	41324	1	Little	32
639.1500000000001	0	n/a	383491	KeyDown	41324	3	Middle	32
639.3016666666667	0	n/a	383582	KeyDown	41324	2	Ring	32
639.4716666666667	0	n/a	383684	KeyDown	41324	4	Index	32
639.7316666666667	0	n/a	383840	KeyDown	41324	4	Index	32
640.1866666666667	0	n/a	384113	KeyDown	41324	1	Little	32
640.4266666666667	0	n/a	384257	KeyDown	41324	3	Middle	32
640.6250000000000	0	n/a	384376	KeyDown	41324	2	Ring	32
640.8066666666667	0	n/a	384485	KeyDown	41324	4	Index	32
641.0766666666667	0	n/a	384647	KeyDown	41324	4	Index	32
641.4416666666667	0	n/a	384866	KeyDown	41324	1	Little	32
641.6650000000001	0	n/a	385000	KeyDown	41324	3	Middle	32
641.8633333333333	0	n/a	385119	KeyDown	41324	2	Ring	32
642.0500000000001	0	n/a	385231	KeyDown	41324	4	Index	32
642.4850000000000	0	n/a	385492	KeyDown	41324	4	Index	32
642.9850000000000	0	n/a	385792	KeyDown	41324	1	Little	32
643.3266666666667	0	n/a	385997	KeyDown	41324	3	Middle	32
643.5316666666668	0	n/a	386120	KeyDown	41324	2	Ring	32
643.7200000000000	0	n/a	386233	KeyDown	41324	4	Index	32
643.9850000000000	0	n/a	386392	KeyDown	41324	4	Index	32
644.1950000000001	0	n/a	386518	KeyDown	41324	1	Little	32
644.4066666666668	0	n/a	386645	KeyDown	41324	3	Middle	32
644.5750000000000	0	n/a	386746	KeyDown	41324	2	Ring	32
644.8350000000000	0	n/a	386902	KeyDown	41324	4	Index	32
645.3616666666667	0	n/a	387218	KeyDown	41324	4	Index	32
645.5316666666668	0	n/a	387320	KeyDown	41324	1	Little	32
645.7200000000000	0	n/a	387433	KeyDown	41324	3	Middle	32
646.0400000000001	0	n/a	387625	KeyDown	41324	2	Ring	32
646.2116666666667	0	n/a	387728	KeyDown	41324	4	Index	32
647.5666666666667	0	n/a	388541	StopPractice	41324	n/a	n/a	32
647.5683333333334	0	n/a	388542	StartRest	XXXXX	n/a	n/a	32
657.6016666666667	0	n/a	394562	StopRest	XXXXX	n/a	n/a	32
657.6033333333334	0	UPPT001	394563	StartPractice	41324	n/a	n/a	33
658.0550000000001	0	n/a	394834	KeyDown	41324	4	Index	33
658.2716666666668	0	n/a	394964	KeyDown	41324	1	Little	33
658.4350000000001	0	n/a	395062	KeyDown	41324	3	Middle	33
658.6150000000000	0	n/a	395170	KeyDown	41324	2	Ring	33
658.7866666666667	0	n/a	395273	KeyDown	41324	4	Index	33
659.0216666666668	0	n/a	395414	KeyDown	41324	4	Index	33
659.1966666666667	0	n/a	395519	KeyDown	41324	1	Little	33
659.3450000000000	0	n/a	395608	KeyDown	41324	3	Middle	33
659.5050000000000	0	n/a	395704	KeyDown	41324	2	Ring	33
659.6600000000001	0	n/a	395797	KeyDown	41324	4	Index	33
659.8650000000000	0	n/a	395920	KeyDown	41324	4	Index	33
660.0400000000001	0	n/a	396025	KeyDown	41324	2	Ring	33
660.3016666666667	0	n/a	396182	KeyDown	41324	1	Little	33
660.5000000000000	0	n/a	396301	KeyDown	41324	3	Middle	33
660.6950000000001	0	n/a	396418	KeyDown	41324	2	Ring	33
660.8700000000000	0	n/a	396523	KeyDown	41324	4	Index	33
661.1116666666667	0	n/a	396668	KeyDown	41324	4	Index	33
661.3016666666667	0	n/a	396782	KeyDown	41324	1	Little	33
661.4866666666667	0	n/a	396893	KeyDown	41324	3	Middle	33
661.6433333333334	0	n/a	396987	KeyDown	41324	2	Ring	33
661.8300000000000	0	n/a	397099	KeyDown	41324	4	Index	33
662.0616666666667	0	n/a	397238	KeyDown	41324	4	Index	33
662.2683333333334	0	n/a	397362	KeyDown	41324	1	Little	33
662.5200000000001	0	n/a	397513	KeyDown	41324	3	Middle	33
662.7016666666667	0	n/a	397622	KeyDown	41324	2	Ring	33
662.8916666666668	0	n/a	397736	KeyDown	41324	4	Index	33
663.1233333333333	0	n/a	397875	KeyDown	41324	4	Index	33
663.3200000000001	0	n/a	397993	KeyDown	41324	1	Little	33
663.5533333333334	0	n/a	398133	KeyDown	41324	1	Little	33
663.9616666666667	0	n/a	398378	KeyDown	41324	3	Middle	33
664.1333333333333	0	n/a	398481	KeyDown	41324	2	Ring	33
664.3000000000001	0	n/a	398581	KeyDown	41324	4	Index	33
664.5466666666667	0	n/a	398729	KeyDown	41324	4	Index	33
664.9066666666668	0	n/a	398945	KeyDown	41324	1	Little	33
665.1600000000001	0	n/a	399097	KeyDown	41324	3	Middle	33
665.3350000000000	0	n/a	399202	KeyDown	41324	2	Ring	33
665.5250000000001	0	n/a	399316	KeyDown	41324	4	Index	33
665.8916666666668	0	n/a	399536	KeyDown	41324	4	Index	33
666.1050000000000	0	n/a	399664	KeyDown	41324	1	Little	33
666.3183333333334	0	n/a	399792	KeyDown	41324	3	Middle	33
666.4800000000000	0	n/a	399889	KeyDown	41324	2	Ring	33
666.6500000000001	0	n/a	399991	KeyDown	41324	4	Index	33
667.1800000000001	0	n/a	400309	KeyDown	41324	4	Index	33
667.3966666666668	0	n/a	400439	KeyDown	41324	1	Little	33
667.6000000000000	0	n/a	400561	KeyDown	41324	1	Little	33
667.6416666666668	0	n/a	400586	StopPractice	41324	n/a	n/a	33
667.6433333333334	0	n/a	400587	StartRest	XXXXX	n/a	n/a	33
677.6766666666667	0	n/a	406607	StopRest	XXXXX	n/a	n/a	33
677.6783333333334	0	UPPT001	406608	StartPractice	41324	n/a	n/a	34
678.0450000000001	0	n/a	406828	KeyDown	41324	4	Index	34
678.2716666666668	0	n/a	406964	KeyDown	41324	1	Little	34
678.4500000000000	0	n/a	407071	KeyDown	41324	3	Middle	34
678.6250000000000	0	n/a	407176	KeyDown	41324	2	Ring	34
678.7933333333334	0	n/a	407277	KeyDown	41324	4	Index	34
679.1033333333334	0	n/a	407463	KeyDown	41324	4	Index	34
679.2866666666667	0	n/a	407573	KeyDown	41324	1	Little	34
679.4816666666667	0	n/a	407690	KeyDown	41324	3	Middle	34
679.6500000000001	0	n/a	407791	KeyDown	41324	2	Ring	34
679.8350000000000	0	n/a	407902	KeyDown	41324	4	Index	34
680.1250000000000	0	n/a	408076	KeyDown	41324	4	Index	34
680.3316666666667	0	n/a	408200	KeyDown	41324	1	Little	34
680.5166666666668	0	n/a	408311	KeyDown	41324	3	Middle	34
680.7033333333334	0	n/a	408423	KeyDown	41324	2	Ring	34
680.8733333333333	0	n/a	408525	KeyDown	41324	4	Index	34
681.1450000000001	0	n/a	408688	KeyDown	41324	4	Index	34
681.3650000000000	0	n/a	408820	KeyDown	41324	1	Little	34
681.4083333333334	0	n/a	408846	KeyDown	41324	2	Ring	34
681.8366666666667	0	n/a	409103	KeyDown	41324	2	Ring	34
682.6550000000001	0	n/a	409594	KeyDown	41324	4	Index	34
682.8233333333334	0	n/a	409695	KeyDown	41324	2	Ring	34
683.0033333333333	0	n/a	409803	KeyDown	41324	4	Index	34
683.9200000000001	0	n/a	410353	KeyDown	41324	4	Index	34
684.0950000000000	0	n/a	410458	KeyDown	41324	1	Little	34
684.4683333333334	0	n/a	410682	KeyDown	41324	3	Middle	34
684.6366666666667	0	n/a	410783	KeyDown	41324	2	Ring	34
684.8133333333334	0	n/a	410889	KeyDown	41324	4	Index	34
685.0666666666667	0	n/a	411041	KeyDown	41324	4	Index	34
685.2516666666667	0	n/a	411152	KeyDown	41324	1	Little	34
685.4466666666667	0	n/a	411269	KeyDown	41324	3	Middle	34
685.6266666666667	0	n/a	411377	KeyDown	41324	2	Ring	34
685.7900000000001	0	n/a	411475	KeyDown	41324	4	Index	34
687.1116666666667	0	n/a	412268	KeyDown	41324	4	Index	34
687.2866666666667	0	n/a	412373	KeyDown	41324	1	Little	34
687.4583333333334	0	n/a	412476	KeyDown	41324	3	Middle	34
687.7166666666667	0	n/a	412631	StopPractice	41324	n/a	n/a	34
687.7183333333334	0	n/a	412632	StartRest	XXXXX	n/a	n/a	34
697.7500000000000	0	n/a	418651	StopRest	XXXXX	n/a	n/a	34
697.7516666666667	0	UPPT001	418652	StartPractice	41324	n/a	n/a	35
698.1166666666667	0	n/a	418871	KeyDown	41324	4	Index	35
698.3600000000000	0	n/a	419017	KeyDown	41324	2	Ring	35
698.6366666666667	0	n/a	419183	KeyDown	41324	1	Little	35
698.8083333333334	0	n/a	419286	KeyDown	41324	3	Middle	35
699.0683333333334	0	n/a	419442	KeyDown	41324	2	Ring	35
699.2416666666667	0	n/a	419546	KeyDown	41324	4	Index	35
699.5233333333334	0	n/a	419715	KeyDown	41324	1	Little	35
700.1850000000001	0	n/a	420112	KeyDown	41324	4	Index	35
700.3566666666667	0	n/a	420215	KeyDown	41324	1	Little	35
700.5416666666667	0	n/a	420326	KeyDown	41324	3	Middle	35
700.7033333333334	0	n/a	420423	KeyDown	41324	2	Ring	35
700.8883333333334	0	n/a	420534	KeyDown	41324	4	Index	35
701.1283333333333	0	n/a	420678	KeyDown	41324	4	Index	35
701.3100000000001	0	n/a	420787	KeyDown	41324	1	Little	35
701.4933333333333	0	n/a	420897	KeyDown	41324	3	Middle	35
701.6750000000001	0	n/a	421006	KeyDown	41324	2	Ring	35
701.8366666666667	0	n/a	421103	KeyDown	41324	4	Index	35
702.0833333333334	0	n/a	421251	KeyDown	41324	4	Index	35
702.2616666666667	0	n/a	421358	KeyDown	41324	1	Little	35
702.5216666666668	0	n/a	421514	KeyDown	41324	3	Middle	35
702.7300000000000	0	n/a	421639	KeyDown	41324	2	Ring	35
702.9083333333334	0	n/a	421746	KeyDown	41324	4	Index	35
703.2016666666667	0	n/a	421922	KeyDown	41324	4	Index	35
703.6033333333334	0	n/a	422163	KeyDown	41324	1	Little	35
703.8550000000000	0	n/a	422314	KeyDown	41324	3	Middle	35
704.0633333333334	0	n/a	422439	KeyDown	41324	2	Ring	35
704.2383333333333	0	n/a	422544	KeyDown	41324	4	Index	35
704.5383333333334	0	n/a	422724	KeyDown	41324	4	Index	35
704.8700000000000	0	n/a	422923	KeyDown	41324	1	Little	35
705.0883333333334	0	n/a	423054	KeyDown	41324	3	Middle	35
705.2766666666668	0	n/a	423167	KeyDown	41324	2	Ring	35
705.4433333333334	0	n/a	423267	KeyDown	41324	4	Index	35
706.0650000000001	0	n/a	423640	KeyDown	41324	4	Index	35
706.2850000000001	0	n/a	423772	KeyDown	41324	1	Little	35
707.2783333333334	0	n/a	424368	KeyDown	41324	3	Middle	35
707.5033333333333	0	n/a	424503	KeyDown	41324	2	Ring	35
707.6500000000001	0	n/a	424591	KeyDown	41324	4	Index	35
707.7900000000001	0	n/a	424675	StopPractice	41324	n/a	n/a	35
707.7916666666667	0	n/a	424676	StartRest	XXXXX	n/a	n/a	35
717.8266666666667	0	n/a	430697	StopRest	XXXXX	n/a	n/a	35
717.8283333333334	0	UPPT001	430698	StartPractice	41324	n/a	n/a	36
718.2200000000000	0	n/a	430933	KeyDown	41324	4	Index	36
718.4516666666667	0	n/a	431072	KeyDown	41324	1	Little	36
718.6383333333334	0	n/a	431184	KeyDown	41324	3	Middle	36
718.8316666666667	0	n/a	431300	KeyDown	41324	2	Ring	36
718.9950000000000	0	n/a	431398	KeyDown	41324	4	Index	36
719.2766666666668	0	n/a	431567	KeyDown	41324	4	Index	36
719.4633333333334	0	n/a	431679	KeyDown	41324	1	Little	36
719.8933333333334	0	n/a	431937	KeyDown	41324	3	Middle	36
720.1550000000001	0	n/a	432094	KeyDown	41324	2	Ring	36
720.3250000000000	0	n/a	432196	KeyDown	41324	4	Index	36
720.6366666666668	0	n/a	432383	KeyDown	41324	4	Index	36
720.8566666666667	0	n/a	432515	KeyDown	41324	1	Little	36
721.0900000000000	0	n/a	432655	KeyDown	41324	3	Middle	36
721.2616666666668	0	n/a	432758	KeyDown	41324	2	Ring	36
721.4533333333334	0	n/a	432873	KeyDown	41324	4	Index	36
721.7250000000000	0	n/a	433036	KeyDown	41324	4	Index	36
721.9066666666668	0	n/a	433145	KeyDown	41324	1	Little	36
722.1166666666667	0	n/a	433271	KeyDown	41324	3	Middle	36
722.2916666666667	0	n/a	433376	KeyDown	41324	2	Ring	36
722.5083333333333	0	n/a	433506	KeyDown	41324	4	Index	36
722.7650000000001	0	n/a	433660	KeyDown	41324	4	Index	36
722.9516666666667	0	n/a	433772	KeyDown	41324	1	Little	36
723.3183333333334	0	n/a	433992	KeyDown	41324	3	Middle	36
723.5166666666668	0	n/a	434111	KeyDown	41324	2	Ring	36
723.7066666666667	0	n/a	434225	KeyDown	41324	4	Index	36
724.4650000000000	0	n/a	434680	KeyDown	41324	4	Index	36
724.6900000000001	0	n/a	434815	KeyDown	41324	1	Little	36
724.9616666666667	0	n/a	434978	KeyDown	41324	3	Middle	36
725.1616666666667	0	n/a	435098	KeyDown	41324	2	Ring	36
725.3483333333334	0	n/a	435210	KeyDown	41324	4	Index	36
725.6216666666667	0	n/a	435374	KeyDown	41324	4	Index	36
726.0366666666667	0	n/a	435623	KeyDown	41324	1	Little	36
726.2983333333334	0	n/a	435780	KeyDown	41324	3	Middle	36
726.4766666666667	0	n/a	435887	KeyDown	41324	2	Ring	36
726.6650000000001	0	n/a	436000	KeyDown	41324	4	Index	36
727.4233333333334	0	n/a	436455	KeyDown	41324	4	Index	36
727.8666666666667	0	n/a	436721	StopPractice	41324	n/a	n/a	36
727.8683333333333	0	n/a	436722	StartRest	XXXXX	n/a	n/a	36
737.9033333333334	0	n/a	442743	StopRest	XXXXX	n/a	n/a	36
